rt,session_id,button_pressed,card,critical_trial,color,pair_type,trial_result,trial_with_partner,Participant ID,Session Number,Deck Color,Order,MINT_Score_Uncued_Correct,ppt_id,Gender,Native_Speaker,Played_before,Taboo_expertise,partner_id,partner_closeness
,1,,Cherry,yes,Blue,Friend,Out of time,1,1,1,Blue,Friend_Stranger,21,1,Female,Yes,No,2,3,4.571428571
10925,1,1,Cheer,yes,Blue,Friend,Lost,2,1,1,Blue,Friend_Stranger,21,1,Female,Yes,No,2,3,4.571428571
8720,1,0,Cheat,yes,Blue,Friend,Won,3,1,1,Blue,Friend_Stranger,21,1,Female,Yes,No,2,3,4.571428571
22030,1,1,Book,yes,Blue,Friend,Lost,4,1,1,Blue,Friend_Stranger,21,1,Female,Yes,No,2,3,4.571428571
,1,,Antique,yes,Blue,Friend,Out of time,5,1,1,Blue,Friend_Stranger,21,1,Female,Yes,No,2,3,4.571428571
8600,1,0,Motorcycle,yes,Blue,Friend,Won,6,1,1,Blue,Friend_Stranger,21,1,Female,Yes,No,2,3,4.571428571
15948,1,1,Blast,yes,Blue,Friend,Lost,7,1,1,Blue,Friend_Stranger,21,1,Female,Yes,No,2,3,4.571428571
12656,1,0,Dorm,yes,Blue,Friend,Won,8,1,1,Blue,Friend_Stranger,21,1,Female,Yes,No,2,3,4.571428571
8933,1,0,Lifeguard,yes,Blue,Friend,Won,9,1,1,Blue,Friend_Stranger,21,1,Female,Yes,No,2,3,4.571428571
20039,1,0,Fame,yes,Blue,Friend,Won,10,1,1,Blue,Friend_Stranger,21,1,Female,Yes,No,2,3,4.571428571
,1,,Grease,yes,Blue,Friend,Out of time,11,1,1,Blue,Friend_Stranger,21,1,Female,Yes,No,2,3,4.571428571
,1,,Battle,yes,Blue,Friend,Out of time,12,1,1,Blue,Friend_Stranger,21,1,Female,Yes,No,2,3,4.571428571
7868,1,1,Cotton,yes,Blue,Friend,Lost,13,1,1,Blue,Friend_Stranger,21,1,Female,Yes,No,2,3,4.571428571
15132,1,1,Dare,yes,Blue,Friend,Lost,14,1,1,Blue,Friend_Stranger,21,1,Female,Yes,No,2,3,4.571428571
10066,1,1,Fingerprint,yes,Blue,Friend,Lost,15,1,1,Blue,Friend_Stranger,21,1,Female,Yes,No,2,3,4.571428571
,1,,Bowling Alley,yes,Blue,Friend,Out of time,16,1,1,Blue,Friend_Stranger,21,1,Female,Yes,No,2,3,4.571428571
15912,1,1,Dead End,yes,Blue,Friend,Lost,17,1,1,Blue,Friend_Stranger,21,1,Female,Yes,No,2,3,4.571428571
13821,1,1,Academy,yes,Blue,Friend,Lost,18,1,1,Blue,Friend_Stranger,21,1,Female,Yes,No,2,3,4.571428571
24955,1,0,Elf,yes,Blue,Friend,Won,19,1,1,Blue,Friend_Stranger,21,1,Female,Yes,No,2,3,4.571428571
12964,1,0,Amnesia,yes,Blue,Friend,Won,20,1,1,Blue,Friend_Stranger,21,1,Female,Yes,No,2,3,4.571428571
,1,,Bench,yes,Blue,Friend,Out of time,21,1,1,Blue,Friend_Stranger,21,1,Female,Yes,No,2,3,4.571428571
18141,1,0,Applause,yes,Blue,Friend,Won,22,1,1,Blue,Friend_Stranger,21,1,Female,Yes,No,2,3,4.571428571
12547,1,1,Cockroach,yes,Blue,Friend,Lost,23,1,1,Blue,Friend_Stranger,21,1,Female,Yes,No,2,3,4.571428571
17562,1,0,Blink,yes,Blue,Friend,Won,24,1,1,Blue,Friend_Stranger,21,1,Female,Yes,No,2,3,4.571428571
13628,1,0,Call,yes,Blue,Friend,Won,25,1,1,Blue,Friend_Stranger,21,1,Female,Yes,No,2,3,4.571428571
10530,1,0,Polar Bear,yes,Blue,Friend,Won,26,1,1,Blue,Friend_Stranger,21,1,Female,Yes,No,2,3,4.571428571
21472,1,1,Busboy,yes,Blue,Friend,Lost,27,1,1,Blue,Friend_Stranger,21,1,Female,Yes,No,2,3,4.571428571
,1,,Deal,yes,Blue,Friend,Out of time,28,1,1,Blue,Friend_Stranger,21,1,Female,Yes,No,2,3,4.571428571
16168,1,0,Dove,yes,Blue,Stranger,Won,1,1,1,Blue,Friend_Stranger,21,1,Female,Yes,No,2,2,0
9630,1,0,Bonfire,yes,Blue,Stranger,Won,2,1,1,Blue,Friend_Stranger,21,1,Female,Yes,No,2,2,0
28766,1,1,Bald,yes,Blue,Stranger,Lost,3,1,1,Blue,Friend_Stranger,21,1,Female,Yes,No,2,2,0
27334,1,0,Chocolate,yes,Blue,Stranger,Won,4,1,1,Blue,Friend_Stranger,21,1,Female,Yes,No,2,2,0
10223,1,0,Bath,yes,Blue,Stranger,Won,5,1,1,Blue,Friend_Stranger,21,1,Female,Yes,No,2,2,0
21765,1,0,Dip,yes,Blue,Stranger,Won,6,1,1,Blue,Friend_Stranger,21,1,Female,Yes,No,2,2,0
11541,1,1,Crawl,yes,Blue,Stranger,Lost,7,1,1,Blue,Friend_Stranger,21,1,Female,Yes,No,2,2,0
21266,1,1,Cartoon,yes,Blue,Stranger,Lost,8,1,1,Blue,Friend_Stranger,21,1,Female,Yes,No,2,2,0
15966,1,1,Army,yes,Blue,Stranger,Lost,9,1,1,Blue,Friend_Stranger,21,1,Female,Yes,No,2,2,0
8007,1,0,Bikini,yes,Blue,Stranger,Won,10,1,1,Blue,Friend_Stranger,21,1,Female,Yes,No,2,2,0
6411,1,1,Flames,yes,Blue,Stranger,Lost,11,1,1,Blue,Friend_Stranger,21,1,Female,Yes,No,2,2,0
23349,1,0,Barn,yes,Blue,Stranger,Won,12,1,1,Blue,Friend_Stranger,21,1,Female,Yes,No,2,2,0
17720,1,0,Hose,yes,Blue,Stranger,Won,13,1,1,Blue,Friend_Stranger,21,1,Female,Yes,No,2,2,0
21503,1,0,Angel,yes,Blue,Stranger,Won,14,1,1,Blue,Friend_Stranger,21,1,Female,Yes,No,2,2,0
9884,1,1,Bargain,yes,Blue,Stranger,Lost,15,1,1,Blue,Friend_Stranger,21,1,Female,Yes,No,2,2,0
6925,1,1,Dribble,yes,Blue,Stranger,Lost,16,1,1,Blue,Friend_Stranger,21,1,Female,Yes,No,2,2,0
29266,1,1,Calories,yes,Blue,Stranger,Lost,17,1,1,Blue,Friend_Stranger,21,1,Female,Yes,No,2,2,0
10727,1,0,Breeze,yes,Blue,Stranger,Won,18,1,1,Blue,Friend_Stranger,21,1,Female,Yes,No,2,2,0
4482,1,1,Design,yes,Blue,Stranger,Lost,19,1,1,Blue,Friend_Stranger,21,1,Female,Yes,No,2,2,0
6001,1,1,Freshen,yes,Blue,Stranger,Lost,20,1,1,Blue,Friend_Stranger,21,1,Female,Yes,No,2,2,0
10619,1,0,Beret,yes,Blue,Stranger,Won,21,1,1,Blue,Friend_Stranger,21,1,Female,Yes,No,2,2,0
8825,1,1,Champagne,yes,Blue,Stranger,Lost,22,1,1,Blue,Friend_Stranger,21,1,Female,Yes,No,2,2,0
10669,1,0,Blister,yes,Blue,Stranger,Won,23,1,1,Blue,Friend_Stranger,21,1,Female,Yes,No,2,2,0
10400,1,0,Airport,yes,Blue,Stranger,Won,24,1,1,Blue,Friend_Stranger,21,1,Female,Yes,No,2,2,0
7807,1,0,Luggage,yes,Blue,Stranger,Won,25,1,1,Blue,Friend_Stranger,21,1,Female,Yes,No,2,2,0
19560,1,1,Daydream,yes,Blue,Stranger,Lost,26,1,1,Blue,Friend_Stranger,21,1,Female,Yes,No,2,2,0
21212,1,0,Cactus,yes,Blue,Stranger,Won,27,1,1,Blue,Friend_Stranger,21,1,Female,Yes,No,2,2,0
10300,1,0,Bartender,yes,Blue,Stranger,Won,28,1,1,Blue,Friend_Stranger,21,1,Female,Yes,No,2,2,0
6826,1,1,Bloom,yes,Blue,Stranger,Lost,29,1,1,Blue,Friend_Stranger,21,1,Female,Yes,No,2,2,0
20505,1,0,Backpack,yes,Blue,Stranger,Won,30,1,1,Blue,Friend_Stranger,21,1,Female,Yes,No,2,2,0
9098,1,1,Bag,yes,Blue,Stranger,Lost,31,1,1,Blue,Friend_Stranger,21,1,Female,Yes,No,2,2,0
7941,1,1,Ladybug,yes,Blue,Stranger,Lost,32,1,1,Blue,Friend_Stranger,21,1,Female,Yes,No,2,2,0
7748,1,0,Battery,yes,Blue,Stranger,Won,33,1,1,Blue,Friend_Stranger,21,1,Female,Yes,No,2,2,0
12527,1,0,Farm,yes,Blue,Stranger,Won,34,1,1,Blue,Friend_Stranger,21,1,Female,Yes,No,2,2,0
20773,1,0,Bakery,yes,Blue,Stranger,Won,35,1,1,Blue,Friend_Stranger,21,1,Female,Yes,No,2,2,0
15169,1,1,Boardwalk,yes,Blue,Stranger,Lost,36,1,1,Blue,Friend_Stranger,21,1,Female,Yes,No,2,2,0
,1,,Straw,yes,Red,Friend,Out of time,1,2,1,Red,Friend_Stranger,20,2,Female,Yes,No,2,4,6
,1,,Piano,yes,Red,Friend,Out of time,2,2,1,Red,Friend_Stranger,20,2,Female,Yes,No,2,4,6
25412,1,0,Tweezers,yes,Red,Friend,Won,3,2,1,Red,Friend_Stranger,20,2,Female,Yes,No,2,4,6
21112,1,1,Outhouse,yes,Red,Friend,Lost,4,2,1,Red,Friend_Stranger,20,2,Female,Yes,No,2,4,6
,1,,Strategy,yes,Red,Friend,Out of time,5,2,1,Red,Friend_Stranger,20,2,Female,Yes,No,2,4,6
8693,1,0,Stars,yes,Red,Friend,Won,6,2,1,Red,Friend_Stranger,20,2,Female,Yes,No,2,4,6
16674,1,1,Scarecrow,yes,Red,Friend,Lost,7,2,1,Red,Friend_Stranger,20,2,Female,Yes,No,2,4,6
,1,,Truffle,yes,Red,Friend,Out of time,8,2,1,Red,Friend_Stranger,20,2,Female,Yes,No,2,4,6
11105,1,0,Sweat,yes,Red,Friend,Won,9,2,1,Red,Friend_Stranger,20,2,Female,Yes,No,2,4,6
16022,1,1,Secret,yes,Red,Friend,Lost,10,2,1,Red,Friend_Stranger,20,2,Female,Yes,No,2,4,6
15967,1,0,Tropical,yes,Red,Friend,Won,11,2,1,Red,Friend_Stranger,20,2,Female,Yes,No,2,4,6
8866,1,1,Snowman,yes,Red,Friend,Lost,12,2,1,Red,Friend_Stranger,20,2,Female,Yes,No,2,4,6
17022,1,1,Pin,yes,Red,Friend,Lost,13,2,1,Red,Friend_Stranger,20,2,Female,Yes,No,2,4,6
,1,,Salt,yes,Red,Friend,Out of time,14,2,1,Red,Friend_Stranger,20,2,Female,Yes,No,2,4,6
22924,1,0,Peak,yes,Red,Friend,Won,15,2,1,Red,Friend_Stranger,20,2,Female,Yes,No,2,4,6
19469,1,0,Trophy,yes,Red,Friend,Won,16,2,1,Red,Friend_Stranger,20,2,Female,Yes,No,2,4,6
29736,1,0,Yesterday,yes,Red,Friend,Won,17,2,1,Red,Friend_Stranger,20,2,Female,Yes,No,2,4,6
10027,1,1,Suds,yes,Red,Friend,Lost,18,2,1,Red,Friend_Stranger,20,2,Female,Yes,No,2,4,6
23969,1,1,Scoop,yes,Red,Friend,Lost,19,2,1,Red,Friend_Stranger,20,2,Female,Yes,No,2,4,6
6734,1,1,Oatmeal,yes,Red,Friend,Lost,20,2,1,Red,Friend_Stranger,20,2,Female,Yes,No,2,4,6
6909,1,1,Polo,yes,Red,Friend,Lost,21,2,1,Red,Friend_Stranger,20,2,Female,Yes,No,2,4,6
,1,,Tip,yes,Red,Friend,Out of time,22,2,1,Red,Friend_Stranger,20,2,Female,Yes,No,2,4,6
24736,1,0,Waiter,yes,Red,Friend,Won,23,2,1,Red,Friend_Stranger,20,2,Female,Yes,No,2,4,6
14279,1,0,Helmet,yes,Red,Friend,Won,24,2,1,Red,Friend_Stranger,20,2,Female,Yes,No,2,4,6
21315,1,1,Mad,yes,Red,Friend,Lost,25,2,1,Red,Friend_Stranger,20,2,Female,Yes,No,2,4,6
,1,,Wishing Well,yes,Red,Friend,Out of time,26,2,1,Red,Friend_Stranger,20,2,Female,Yes,No,2,4,6
22808,1,0,Parsley,yes,Red,Stranger,Won,1,2,1,Red,Friend_Stranger,20,2,Female,Yes,No,2,1,0
9630,1,0,Tired,yes,Red,Stranger,Won,2,2,1,Red,Friend_Stranger,20,2,Female,Yes,No,2,1,0
23400,1,0,Valet,yes,Red,Stranger,Won,3,2,1,Red,Friend_Stranger,20,2,Female,Yes,No,2,1,0
,1,,Pound,yes,Red,Stranger,Out of time,4,2,1,Red,Friend_Stranger,20,2,Female,Yes,No,2,1,0
16584,1,0,Touch,yes,Red,Stranger,Won,5,2,1,Red,Friend_Stranger,20,2,Female,Yes,No,2,1,0
,1,,Street,yes,Red,Stranger,Out of time,6,2,1,Red,Friend_Stranger,20,2,Female,Yes,No,2,1,0
23543,1,0,Tuxedo,yes,Red,Stranger,Won,7,2,1,Red,Friend_Stranger,20,2,Female,Yes,No,2,1,0
17521,1,0,Tent,yes,Red,Stranger,Won,8,2,1,Red,Friend_Stranger,20,2,Female,Yes,No,2,1,0
17125,1,0,Windmill,yes,Red,Stranger,Won,9,2,1,Red,Friend_Stranger,20,2,Female,Yes,No,2,1,0
23964,1,0,Zebra,yes,Red,Stranger,Won,10,2,1,Red,Friend_Stranger,20,2,Female,Yes,No,2,1,0
13066,1,0,Mirror,yes,Red,Stranger,Won,11,2,1,Red,Friend_Stranger,20,2,Female,Yes,No,2,1,0
14472,1,0,Knife,yes,Red,Stranger,Won,12,2,1,Red,Friend_Stranger,20,2,Female,Yes,No,2,1,0
26808,1,1,Stiff,yes,Red,Stranger,Lost,13,2,1,Red,Friend_Stranger,20,2,Female,Yes,No,2,1,0
16631,1,0,Snack,yes,Red,Stranger,Won,14,2,1,Red,Friend_Stranger,20,2,Female,Yes,No,2,1,0
14100,1,0,Pool,yes,Red,Stranger,Won,15,2,1,Red,Friend_Stranger,20,2,Female,Yes,No,2,1,0
8630,1,0,Static,yes,Red,Stranger,Won,16,2,1,Red,Friend_Stranger,20,2,Female,Yes,No,2,1,0
10114,1,0,Manicure,yes,Red,Stranger,Won,17,2,1,Red,Friend_Stranger,20,2,Female,Yes,No,2,1,0
11302,1,0,Snowflake,yes,Red,Stranger,Won,18,2,1,Red,Friend_Stranger,20,2,Female,Yes,No,2,1,0
23684,1,0,Shrimp,yes,Red,Stranger,Won,19,2,1,Red,Friend_Stranger,20,2,Female,Yes,No,2,1,0
12064,1,0,Stomach,yes,Red,Stranger,Won,20,2,1,Red,Friend_Stranger,20,2,Female,Yes,No,2,1,0
9599,1,1,Hamster,yes,Red,Stranger,Lost,21,2,1,Red,Friend_Stranger,20,2,Female,Yes,No,2,1,0
11849,1,0,Teacher,yes,Red,Stranger,Won,22,2,1,Red,Friend_Stranger,20,2,Female,Yes,No,2,1,0
15259,1,1,Vitamin C,yes,Red,Stranger,Lost,23,2,1,Red,Friend_Stranger,20,2,Female,Yes,No,2,1,0
7562,1,0,Theme Park,yes,Red,Stranger,Won,24,2,1,Red,Friend_Stranger,20,2,Female,Yes,No,2,1,0
20868,1,0,Yawn,yes,Red,Stranger,Won,25,2,1,Red,Friend_Stranger,20,2,Female,Yes,No,2,1,0
12010,1,1,Violin,yes,Red,Stranger,Lost,26,2,1,Red,Friend_Stranger,20,2,Female,Yes,No,2,1,0
27645,1,0,Yo-Yo,yes,Red,Stranger,Won,27,2,1,Red,Friend_Stranger,20,2,Female,Yes,No,2,1,0
10402,1,1,Trolley Car,yes,Red,Stranger,Lost,28,2,1,Red,Friend_Stranger,20,2,Female,Yes,No,2,1,0
9750,1,0,Spatula,yes,Red,Stranger,Won,29,2,1,Red,Friend_Stranger,20,2,Female,Yes,No,2,1,0
23872,1,1,Smear,yes,Red,Stranger,Lost,30,2,1,Red,Friend_Stranger,20,2,Female,Yes,No,2,1,0
21346,1,1,Tweet,yes,Red,Stranger,Lost,31,2,1,Red,Friend_Stranger,20,2,Female,Yes,No,2,1,0
6181,1,1,In-Law,yes,Purple,Friend,Lost,1,3,1,Purple,Friend_Stranger,21,3,Male,Yes,No,3,1,3.857142857
20398,1,1,Silk,yes,Purple,Friend,Lost,2,3,1,Purple,Friend_Stranger,21,3,Male,Yes,No,3,1,3.857142857
17582,1,0,Lake,yes,Purple,Friend,Won,3,3,1,Purple,Friend_Stranger,21,3,Male,Yes,No,3,1,3.857142857
12556,1,0,Test,yes,Purple,Friend,Won,4,3,1,Purple,Friend_Stranger,21,3,Male,Yes,No,3,1,3.857142857
13609,1,0,Peacock,yes,Purple,Friend,Won,5,3,1,Purple,Friend_Stranger,21,3,Male,Yes,No,3,1,3.857142857
17472,1,1,Scenery,yes,Purple,Friend,Lost,6,3,1,Purple,Friend_Stranger,21,3,Male,Yes,No,3,1,3.857142857
,1,,Huddle,yes,Purple,Friend,Out of time,7,3,1,Purple,Friend_Stranger,21,3,Male,Yes,No,3,1,3.857142857
30173,1,1,Leftovers,yes,Purple,Friend,Lost,8,3,1,Purple,Friend_Stranger,21,3,Male,Yes,No,3,1,3.857142857
16174,1,0,Jury,yes,Purple,Friend,Won,9,3,1,Purple,Friend_Stranger,21,3,Male,Yes,No,3,1,3.857142857
21264,1,0,Mattress,yes,Purple,Friend,Won,10,3,1,Purple,Friend_Stranger,21,3,Male,Yes,No,3,1,3.857142857
29658,1,0,Teddy Bear,yes,Purple,Friend,Won,11,3,1,Purple,Friend_Stranger,21,3,Male,Yes,No,3,1,3.857142857
7622,1,0,Sunny,yes,Purple,Friend,Won,12,3,1,Purple,Friend_Stranger,21,3,Male,Yes,No,3,1,3.857142857
23873,1,0,Rock,yes,Purple,Friend,Won,13,3,1,Purple,Friend_Stranger,21,3,Male,Yes,No,3,1,3.857142857
12815,1,1,Tonsils,yes,Purple,Friend,Lost,14,3,1,Purple,Friend_Stranger,21,3,Male,Yes,No,3,1,3.857142857
18745,1,1,Scorpion,yes,Purple,Friend,Lost,15,3,1,Purple,Friend_Stranger,21,3,Male,Yes,No,3,1,3.857142857
,1,,Intelligent,yes,Purple,Friend,Out of time,16,3,1,Purple,Friend_Stranger,21,3,Male,Yes,No,3,1,3.857142857
13770,1,0,Scientist,yes,Purple,Friend,Won,17,3,1,Purple,Friend_Stranger,21,3,Male,Yes,No,3,1,3.857142857
16689,1,0,Pickpocket,yes,Purple,Friend,Won,18,3,1,Purple,Friend_Stranger,21,3,Male,Yes,No,3,1,3.857142857
10735,1,1,Point,yes,Purple,Friend,Lost,19,3,1,Purple,Friend_Stranger,21,3,Male,Yes,No,3,1,3.857142857
9566,1,0,Path,yes,Purple,Friend,Won,20,3,1,Purple,Friend_Stranger,21,3,Male,Yes,No,3,1,3.857142857
18111,1,0,Fireplace,yes,Purple,Friend,Won,21,3,1,Purple,Friend_Stranger,21,3,Male,Yes,No,3,1,3.857142857
7477,1,0,Graduation,yes,Purple,Friend,Won,22,3,1,Purple,Friend_Stranger,21,3,Male,Yes,No,3,1,3.857142857
8149,1,1,Tightrope,yes,Purple,Friend,Lost,23,3,1,Purple,Friend_Stranger,21,3,Male,Yes,No,3,1,3.857142857
16404,1,1,Saddle,yes,Purple,Friend,Lost,24,3,1,Purple,Friend_Stranger,21,3,Male,Yes,No,3,1,3.857142857
5153,1,1,Grape,yes,Purple,Friend,Lost,25,3,1,Purple,Friend_Stranger,21,3,Male,Yes,No,3,1,3.857142857
26454,1,0,Shovel,yes,Purple,Friend,Won,26,3,1,Purple,Friend_Stranger,21,3,Male,Yes,No,3,1,3.857142857
28950,1,1,Rainbow,yes,Purple,Friend,Lost,27,3,1,Purple,Friend_Stranger,21,3,Male,Yes,No,3,1,3.857142857
25224,1,1,Stable,yes,Purple,Friend,Lost,28,3,1,Purple,Friend_Stranger,21,3,Male,Yes,No,3,1,3.857142857
10059,1,0,Hiking,yes,Purple,Friend,Won,29,3,1,Purple,Friend_Stranger,21,3,Male,Yes,No,3,1,3.857142857
10769,1,0,Job,yes,Purple,Friend,Won,30,3,1,Purple,Friend_Stranger,21,3,Male,Yes,No,3,1,3.857142857
5932,1,1,Turnover,yes,Purple,Friend,Lost,31,3,1,Purple,Friend_Stranger,21,3,Male,Yes,No,3,1,3.857142857
13279,1,1,Panic,yes,Purple,Friend,Lost,32,3,1,Purple,Friend_Stranger,21,3,Male,Yes,No,3,1,3.857142857
15965,1,0,Mistletoe,yes,Purple,Stranger,Won,1,3,1,Purple,Friend_Stranger,21,3,Male,Yes,No,3,4,0
4475,1,1,Tavern,yes,Purple,Stranger,Lost,2,3,1,Purple,Friend_Stranger,21,3,Male,Yes,No,3,4,0
13528,1,0,Fly,yes,Purple,Stranger,Won,3,3,1,Purple,Friend_Stranger,21,3,Male,Yes,No,3,4,0
13355,1,0,Navy,yes,Purple,Stranger,Won,4,3,1,Purple,Friend_Stranger,21,3,Male,Yes,No,3,4,0
8036,1,0,Owl,yes,Purple,Stranger,Won,5,3,1,Purple,Friend_Stranger,21,3,Male,Yes,No,3,4,0
6676,1,1,Lottery,yes,Purple,Stranger,Lost,6,3,1,Purple,Friend_Stranger,21,3,Male,Yes,No,3,4,0
22906,1,0,Sushi,yes,Purple,Stranger,Won,7,3,1,Purple,Friend_Stranger,21,3,Male,Yes,No,3,4,0
12760,1,0,Stale,yes,Purple,Stranger,Won,8,3,1,Purple,Friend_Stranger,21,3,Male,Yes,No,3,4,0
13233,1,0,Nail,yes,Purple,Stranger,Won,9,3,1,Purple,Friend_Stranger,21,3,Male,Yes,No,3,4,0
20804,1,1,Temperature,yes,Purple,Stranger,Lost,10,3,1,Purple,Friend_Stranger,21,3,Male,Yes,No,3,4,0
23695,1,0,Lasagna,yes,Purple,Stranger,Won,11,3,1,Purple,Friend_Stranger,21,3,Male,Yes,No,3,4,0
549,1,0,Survive,yes,Purple,Stranger,Won,12,3,1,Purple,Friend_Stranger,21,3,Male,Yes,No,3,4,0
14513,1,0,Mountain,yes,Purple,Stranger,Won,13,3,1,Purple,Friend_Stranger,21,3,Male,Yes,No,3,4,0
6026,1,1,Mud,yes,Purple,Stranger,Lost,14,3,1,Purple,Friend_Stranger,21,3,Male,Yes,No,3,4,0
11376,1,0,Paw,yes,Purple,Stranger,Won,15,3,1,Purple,Friend_Stranger,21,3,Male,Yes,No,3,4,0
15116,1,1,Mix,yes,Purple,Stranger,Lost,16,3,1,Purple,Friend_Stranger,21,3,Male,Yes,No,3,4,0
19424,1,0,Question Mark,yes,Purple,Stranger,Won,17,3,1,Purple,Friend_Stranger,21,3,Male,Yes,No,3,4,0
25127,1,0,Pizza,yes,Purple,Stranger,Won,18,3,1,Purple,Friend_Stranger,21,3,Male,Yes,No,3,4,0
16452,1,1,Shaving Cream,yes,Purple,Stranger,Lost,19,3,1,Purple,Friend_Stranger,21,3,Male,Yes,No,3,4,0
10382,1,0,Dance,yes,Purple,Stranger,Won,20,3,1,Purple,Friend_Stranger,21,3,Male,Yes,No,3,4,0
6908,1,0,Puppy,yes,Purple,Stranger,Won,21,3,1,Purple,Friend_Stranger,21,3,Male,Yes,No,3,4,0
11254,1,1,Slow,yes,Purple,Stranger,Lost,22,3,1,Purple,Friend_Stranger,21,3,Male,Yes,No,3,4,0
11847,1,0,Snooze,yes,Purple,Stranger,Won,23,3,1,Purple,Friend_Stranger,21,3,Male,Yes,No,3,4,0
4372,1,1,Tart,yes,Purple,Stranger,Lost,24,3,1,Purple,Friend_Stranger,21,3,Male,Yes,No,3,4,0
3882,1,1,Nozzle,yes,Purple,Stranger,Lost,25,3,1,Purple,Friend_Stranger,21,3,Male,Yes,No,3,4,0
27878,1,1,Buffalo,yes,Purple,Stranger,Lost,26,3,1,Purple,Friend_Stranger,21,3,Male,Yes,No,3,4,0
17561,1,1,Purple,yes,Purple,Stranger,Lost,27,3,1,Purple,Friend_Stranger,21,3,Male,Yes,No,3,4,0
3081,1,1,Studio,yes,Purple,Stranger,Lost,28,3,1,Purple,Friend_Stranger,21,3,Male,Yes,No,3,4,0
,1,,Tickle,yes,Purple,Stranger,Out of time,29,3,1,Purple,Friend_Stranger,21,3,Male,Yes,No,3,4,0
10715,1,1,Sneeze,yes,Purple,Stranger,Lost,30,3,1,Purple,Friend_Stranger,21,3,Male,Yes,No,3,4,0
25100,1,1,Skunk,yes,Purple,Stranger,Lost,31,3,1,Purple,Friend_Stranger,21,3,Male,Yes,No,3,4,0
12576,1,0,Monster,yes,Purple,Stranger,Won,32,3,1,Purple,Friend_Stranger,21,3,Male,Yes,No,3,4,0
,1,,Touchdown,yes,Purple,Stranger,Out of time,33,3,1,Purple,Friend_Stranger,21,3,Male,Yes,No,3,4,0
3614,1,1,Luau,yes,Purple,Stranger,Lost,34,3,1,Purple,Friend_Stranger,21,3,Male,Yes,No,3,4,0
21358,1,0,Thirst,yes,Purple,Stranger,Won,35,3,1,Purple,Friend_Stranger,21,3,Male,Yes,No,3,4,0
,1,,Gossip,yes,Purple,Stranger,Out of time,36,3,1,Purple,Friend_Stranger,21,3,Male,Yes,No,3,4,0
16353,1,0,Island,yes,Yellow,Friend,Won,1,4,1,Yellow,Friend_Stranger,21,4,Male,Yes,No,3,2,4.571428571
,1,,Garlic,yes,Yellow,Friend,Out of time,2,4,1,Yellow,Friend_Stranger,21,4,Male,Yes,No,3,2,4.571428571
19281,1,1,Pretzel,yes,Yellow,Friend,Lost,3,4,1,Yellow,Friend_Stranger,21,4,Male,Yes,No,3,2,4.571428571
14254,1,0,Artist,yes,Yellow,Friend,Won,4,4,1,Yellow,Friend_Stranger,21,4,Male,Yes,No,3,2,4.571428571
15055,1,0,Lizard,yes,Yellow,Friend,Won,5,4,1,Yellow,Friend_Stranger,21,4,Male,Yes,No,3,2,4.571428571
9707,1,0,Chandelier,yes,Yellow,Friend,Won,6,4,1,Yellow,Friend_Stranger,21,4,Male,Yes,No,3,2,4.571428571
13563,1,0,Mop,yes,Yellow,Friend,Won,7,4,1,Yellow,Friend_Stranger,21,4,Male,Yes,No,3,2,4.571428571
14440,1,1,Museum,yes,Yellow,Friend,Lost,8,4,1,Yellow,Friend_Stranger,21,4,Male,Yes,No,3,2,4.571428571
11071,1,0,Lunch,yes,Yellow,Friend,Won,9,4,1,Yellow,Friend_Stranger,21,4,Male,Yes,No,3,2,4.571428571
27411,1,1,Debut,yes,Yellow,Friend,Lost,10,4,1,Yellow,Friend_Stranger,21,4,Male,Yes,No,3,2,4.571428571
15881,1,0,Soup,yes,Yellow,Friend,Won,11,4,1,Yellow,Friend_Stranger,21,4,Male,Yes,No,3,2,4.571428571
15991,1,0,Butter,yes,Yellow,Friend,Won,12,4,1,Yellow,Friend_Stranger,21,4,Male,Yes,No,3,2,4.571428571
,1,,Forecast,yes,Yellow,Friend,Out of time,13,4,1,Yellow,Friend_Stranger,21,4,Male,Yes,No,3,2,4.571428571
14451,1,0,Fall,yes,Yellow,Friend,Won,14,4,1,Yellow,Friend_Stranger,21,4,Male,Yes,No,3,2,4.571428571
19232,1,1,License,yes,Yellow,Friend,Lost,15,4,1,Yellow,Friend_Stranger,21,4,Male,Yes,No,3,2,4.571428571
15659,1,0,Sauna,yes,Yellow,Friend,Won,16,4,1,Yellow,Friend_Stranger,21,4,Male,Yes,No,3,2,4.571428571
11937,1,0,Customer,yes,Yellow,Friend,Won,17,4,1,Yellow,Friend_Stranger,21,4,Male,Yes,No,3,2,4.571428571
7184,1,1,Explode,yes,Yellow,Friend,Lost,18,4,1,Yellow,Friend_Stranger,21,4,Male,Yes,No,3,2,4.571428571
,1,,Scale,yes,Yellow,Friend,Out of time,19,4,1,Yellow,Friend_Stranger,21,4,Male,Yes,No,3,2,4.571428571
22911,1,0,Honey,yes,Yellow,Friend,Won,20,4,1,Yellow,Friend_Stranger,21,4,Male,Yes,No,3,2,4.571428571
17764,1,0,Sip,yes,Yellow,Friend,Won,21,4,1,Yellow,Friend_Stranger,21,4,Male,Yes,No,3,2,4.571428571
9542,1,1,Geyser,yes,Yellow,Friend,Lost,22,4,1,Yellow,Friend_Stranger,21,4,Male,Yes,No,3,2,4.571428571
18747,1,1,Geometry,yes,Yellow,Friend,Lost,23,4,1,Yellow,Friend_Stranger,21,4,Male,Yes,No,3,2,4.571428571
7064,1,0,Blow,yes,Yellow,Friend,Won,24,4,1,Yellow,Friend_Stranger,21,4,Male,Yes,No,3,2,4.571428571
23064,1,0,Organic,yes,Yellow,Friend,Won,25,4,1,Yellow,Friend_Stranger,21,4,Male,Yes,No,3,2,4.571428571
10267,1,1,Deck,yes,Yellow,Friend,Lost,26,4,1,Yellow,Friend_Stranger,21,4,Male,Yes,No,3,2,4.571428571
8384,1,0,Doll,yes,Yellow,Friend,Won,27,4,1,Yellow,Friend_Stranger,21,4,Male,Yes,No,3,2,4.571428571
16894,1,0,Crab,yes,Yellow,Friend,Won,28,4,1,Yellow,Friend_Stranger,21,4,Male,Yes,No,3,2,4.571428571
15461,1,0,Garage,yes,Yellow,Friend,Won,29,4,1,Yellow,Friend_Stranger,21,4,Male,Yes,No,3,2,4.571428571
14419,1,0,Shuffle,yes,Yellow,Friend,Won,30,4,1,Yellow,Friend_Stranger,21,4,Male,Yes,No,3,2,4.571428571
24749,1,0,Couch,yes,Yellow,Friend,Won,31,4,1,Yellow,Friend_Stranger,21,4,Male,Yes,No,3,2,4.571428571
4966,1,1,Honesty,yes,Yellow,Friend,Lost,32,4,1,Yellow,Friend_Stranger,21,4,Male,Yes,No,3,2,4.571428571
,1,,Ghost,yes,Yellow,Stranger,Out of time,1,4,1,Yellow,Friend_Stranger,21,4,Male,Yes,No,3,3,0
6744,1,1,Decipher,yes,Yellow,Stranger,Lost,2,4,1,Yellow,Friend_Stranger,21,4,Male,Yes,No,3,3,0
,1,,Reindeer,yes,Yellow,Stranger,Out of time,3,4,1,Yellow,Friend_Stranger,21,4,Male,Yes,No,3,3,0
24057,1,1,Stripes,yes,Yellow,Stranger,Lost,4,4,1,Yellow,Friend_Stranger,21,4,Male,Yes,No,3,3,0
17176,1,1,Pomegranate,yes,Yellow,Stranger,Lost,5,4,1,Yellow,Friend_Stranger,21,4,Male,Yes,No,3,3,0
5127,1,1,Feather,yes,Yellow,Stranger,Lost,6,4,1,Yellow,Friend_Stranger,21,4,Male,Yes,No,3,3,0
10920,1,1,Chopsticks,yes,Yellow,Stranger,Lost,7,4,1,Yellow,Friend_Stranger,21,4,Male,Yes,No,3,3,0
8920,1,0,Healthy,yes,Yellow,Stranger,Won,8,4,1,Yellow,Friend_Stranger,21,4,Male,Yes,No,3,3,0
8218,1,0,Brown,yes,Yellow,Stranger,Won,9,4,1,Yellow,Friend_Stranger,21,4,Male,Yes,No,3,3,0
9159,1,1,Field,yes,Yellow,Stranger,Lost,10,4,1,Yellow,Friend_Stranger,21,4,Male,Yes,No,3,3,0
11485,1,0,Refrigerator,yes,Yellow,Stranger,Won,11,4,1,Yellow,Friend_Stranger,21,4,Male,Yes,No,3,3,0
17762,1,0,Circle,yes,Yellow,Stranger,Won,12,4,1,Yellow,Friend_Stranger,21,4,Male,Yes,No,3,3,0
10231,1,0,Belly Button,yes,Yellow,Stranger,Won,13,4,1,Yellow,Friend_Stranger,21,4,Male,Yes,No,3,3,0
10128,1,0,Germ,yes,Yellow,Stranger,Won,14,4,1,Yellow,Friend_Stranger,21,4,Male,Yes,No,3,3,0
16753,1,0,Lipstick,yes,Yellow,Stranger,Won,15,4,1,Yellow,Friend_Stranger,21,4,Male,Yes,No,3,3,0
18145,1,0,Cream,yes,Yellow,Stranger,Won,16,4,1,Yellow,Friend_Stranger,21,4,Male,Yes,No,3,3,0
17880,1,1,Know,yes,Yellow,Stranger,Lost,17,4,1,Yellow,Friend_Stranger,21,4,Male,Yes,No,3,3,0
8325,1,0,Park,yes,Yellow,Stranger,Won,18,4,1,Yellow,Friend_Stranger,21,4,Male,Yes,No,3,3,0
14002,1,0,Spider,yes,Yellow,Stranger,Won,19,4,1,Yellow,Friend_Stranger,21,4,Male,Yes,No,3,3,0
6441,1,1,Gallery,yes,Yellow,Stranger,Lost,20,4,1,Yellow,Friend_Stranger,21,4,Male,Yes,No,3,3,0
9185,1,1,Hypnosis,yes,Yellow,Stranger,Lost,21,4,1,Yellow,Friend_Stranger,21,4,Male,Yes,No,3,3,0
10625,1,0,Ice,yes,Yellow,Stranger,Won,22,4,1,Yellow,Friend_Stranger,21,4,Male,Yes,No,3,3,0
20920,1,0,Journey,yes,Yellow,Stranger,Won,23,4,1,Yellow,Friend_Stranger,21,4,Male,Yes,No,3,3,0
7389,1,0,Heart,yes,Yellow,Stranger,Won,24,4,1,Yellow,Friend_Stranger,21,4,Male,Yes,No,3,3,0
18733,1,0,Butterfly,yes,Yellow,Stranger,Won,25,4,1,Yellow,Friend_Stranger,21,4,Male,Yes,No,3,3,0
28608,1,1,Rhyme,yes,Yellow,Stranger,Lost,26,4,1,Yellow,Friend_Stranger,21,4,Male,Yes,No,3,3,0
11986,1,1,Confetti,yes,Yellow,Stranger,Lost,27,4,1,Yellow,Friend_Stranger,21,4,Male,Yes,No,3,3,0
10292,1,0,Cast,yes,Yellow,Stranger,Won,28,4,1,Yellow,Friend_Stranger,21,4,Male,Yes,No,3,3,0
20654,1,0,Fan,yes,Yellow,Stranger,Won,29,4,1,Yellow,Friend_Stranger,21,4,Male,Yes,No,3,3,0
9074,1,0,Break,yes,Yellow,Stranger,Won,30,4,1,Yellow,Friend_Stranger,21,4,Male,Yes,No,3,3,0
24137,1,0,Detective,yes,Yellow,Stranger,Won,31,4,1,Yellow,Friend_Stranger,21,4,Male,Yes,No,3,3,0
12802,1,1,Insomnia,yes,Yellow,Stranger,Lost,32,4,1,Yellow,Friend_Stranger,21,4,Male,Yes,No,3,3,0
16003,1,0,Crayon,yes,Yellow,Stranger,Won,33,4,1,Yellow,Friend_Stranger,21,4,Male,Yes,No,3,3,0
13104,1,0,Kite,yes,Yellow,Stranger,Won,34,4,1,Yellow,Friend_Stranger,21,4,Male,Yes,No,3,3,0
6996,1,1,Money,yes,Yellow,Stranger,Lost,35,4,1,Yellow,Friend_Stranger,21,4,Male,Yes,No,3,3,0
11440,4,0,Backpack,yes,Blue,Stranger,Won,1,13,4,Blue,Stranger_Friend,20,13,Female,Yes,No,2,15,0
19128,4,1,Bloom,yes,Blue,Stranger,Lost,2,13,4,Blue,Stranger_Friend,20,13,Female,Yes,No,2,15,0
21045,4,1,Adhesive,yes,Blue,Stranger,Lost,3,13,4,Blue,Stranger_Friend,20,13,Female,Yes,No,2,15,0
24068,4,0,Dip,yes,Blue,Stranger,Won,4,13,4,Blue,Stranger_Friend,20,13,Female,Yes,No,2,15,0
,4,,Bait,yes,Blue,Stranger,Out of time,5,13,4,Blue,Stranger_Friend,20,13,Female,Yes,No,2,15,0
,4,,Bunny,yes,Blue,Stranger,Out of time,6,13,4,Blue,Stranger_Friend,20,13,Female,Yes,No,2,15,0
18173,4,0,Call,yes,Blue,Stranger,Won,7,13,4,Blue,Stranger_Friend,20,13,Female,Yes,No,2,15,0
7259,4,0,Fame,yes,Blue,Stranger,Won,8,13,4,Blue,Stranger_Friend,20,13,Female,Yes,No,2,15,0
4190,4,1,Gallon,yes,Blue,Stranger,Lost,9,13,4,Blue,Stranger_Friend,20,13,Female,Yes,No,2,15,0
13011,4,0,Bartender,yes,Blue,Stranger,Won,10,13,4,Blue,Stranger_Friend,20,13,Female,Yes,No,2,15,0
,4,,Brain,yes,Blue,Stranger,Out of time,11,13,4,Blue,Stranger_Friend,20,13,Female,Yes,No,2,15,0
18157,4,0,Cowboy,yes,Blue,Stranger,Won,12,13,4,Blue,Stranger_Friend,20,13,Female,Yes,No,2,15,0
3191,4,1,Bayou,yes,Blue,Stranger,Lost,13,13,4,Blue,Stranger_Friend,20,13,Female,Yes,No,2,15,0
11463,4,0,Crutches,yes,Blue,Stranger,Won,14,13,4,Blue,Stranger_Friend,20,13,Female,Yes,No,2,15,0
9352,4,1,Pitch,yes,Blue,Stranger,Lost,15,13,4,Blue,Stranger_Friend,20,13,Female,Yes,No,2,15,0
15449,4,1,Cottage,yes,Blue,Stranger,Lost,16,13,4,Blue,Stranger_Friend,20,13,Female,Yes,No,2,15,0
3226,4,1,Boardwalk,yes,Blue,Stranger,Lost,17,13,4,Blue,Stranger_Friend,20,13,Female,Yes,No,2,15,0
5583,4,0,Cactus,yes,Blue,Stranger,Won,18,13,4,Blue,Stranger_Friend,20,13,Female,Yes,No,2,15,0
20432,4,0,Drive,yes,Blue,Stranger,Won,19,13,4,Blue,Stranger_Friend,20,13,Female,Yes,No,2,15,0
12511,4,0,Dorm,yes,Blue,Stranger,Won,20,13,4,Blue,Stranger_Friend,20,13,Female,Yes,No,2,15,0
16989,4,1,Airport,yes,Blue,Stranger,Lost,21,13,4,Blue,Stranger_Friend,20,13,Female,Yes,No,2,15,0
14909,4,1,Blink,yes,Blue,Stranger,Lost,22,13,4,Blue,Stranger_Friend,20,13,Female,Yes,No,2,15,0
7934,4,0,Elf,yes,Blue,Stranger,Won,23,13,4,Blue,Stranger_Friend,20,13,Female,Yes,No,2,15,0
27797,4,1,Flames,yes,Blue,Stranger,Lost,24,13,4,Blue,Stranger_Friend,20,13,Female,Yes,No,2,15,0
17137,4,0,Gasp,yes,Blue,Stranger,Won,25,13,4,Blue,Stranger_Friend,20,13,Female,Yes,No,2,15,0
12836,4,1,Deal,yes,Blue,Stranger,Lost,26,13,4,Blue,Stranger_Friend,20,13,Female,Yes,No,2,15,0
9586,4,0,Crawl,yes,Blue,Stranger,Won,27,13,4,Blue,Stranger_Friend,20,13,Female,Yes,No,2,15,0
23404,4,0,Champagne,yes,Blue,Stranger,Won,28,13,4,Blue,Stranger_Friend,20,13,Female,Yes,No,2,15,0
13696,4,1,Design,yes,Blue,Stranger,Lost,29,13,4,Blue,Stranger_Friend,20,13,Female,Yes,No,2,15,0
8555,4,1,Ambassador,yes,Blue,Stranger,Lost,30,13,4,Blue,Stranger_Friend,20,13,Female,Yes,No,2,15,0
,4,,Academy,yes,Blue,Stranger,Out of time,31,13,4,Blue,Stranger_Friend,20,13,Female,Yes,No,2,15,0
21330,4,0,Bridge,yes,Blue,Stranger,Won,32,13,4,Blue,Stranger_Friend,20,13,Female,Yes,No,2,15,0
5399,4,1,Carpet,yes,Blue,Stranger,Lost,33,13,4,Blue,Stranger_Friend,20,13,Female,Yes,No,2,15,0
8439,4,0,Fingerprint,yes,Blue,Friend,Won,1,13,4,Blue,Stranger_Friend,20,13,Female,Yes,No,2,16,3.375
16567,4,0,Cartoon,yes,Blue,Friend,Won,2,13,4,Blue,Stranger_Friend,20,13,Female,Yes,No,2,16,3.375
4436,4,1,Freshen,yes,Blue,Friend,Lost,3,13,4,Blue,Stranger_Friend,20,13,Female,Yes,No,2,16,3.375
18916,4,0,Bakery,yes,Blue,Friend,Won,4,13,4,Blue,Stranger_Friend,20,13,Female,Yes,No,2,16,3.375
19871,4,0,Barn,yes,Blue,Friend,Won,5,13,4,Blue,Stranger_Friend,20,13,Female,Yes,No,2,16,3.375
16463,4,1,Daydream,yes,Blue,Friend,Lost,6,13,4,Blue,Stranger_Friend,20,13,Female,Yes,No,2,16,3.375
12082,4,0,Dead End,yes,Blue,Friend,Won,7,13,4,Blue,Stranger_Friend,20,13,Female,Yes,No,2,16,3.375
4258,4,1,Headline,yes,Blue,Friend,Lost,8,13,4,Blue,Stranger_Friend,20,13,Female,Yes,No,2,16,3.375
17032,4,0,Chef,yes,Blue,Friend,Won,9,13,4,Blue,Stranger_Friend,20,13,Female,Yes,No,2,16,3.375
6123,4,1,Fidget,yes,Blue,Friend,Lost,10,13,4,Blue,Stranger_Friend,20,13,Female,Yes,No,2,16,3.375
12889,4,0,Defrost,yes,Blue,Friend,Won,11,13,4,Blue,Stranger_Friend,20,13,Female,Yes,No,2,16,3.375
7561,4,0,Oil,yes,Blue,Friend,Won,12,13,4,Blue,Stranger_Friend,20,13,Female,Yes,No,2,16,3.375
4772,4,0,Doctor,yes,Blue,Friend,Won,13,13,4,Blue,Stranger_Friend,20,13,Female,Yes,No,2,16,3.375
7005,4,1,Ache,yes,Blue,Friend,Lost,14,13,4,Blue,Stranger_Friend,20,13,Female,Yes,No,2,16,3.375
6988,4,0,Breeze,yes,Blue,Friend,Won,15,13,4,Blue,Stranger_Friend,20,13,Female,Yes,No,2,16,3.375
9084,4,1,Boomerang,yes,Blue,Friend,Lost,16,13,4,Blue,Stranger_Friend,20,13,Female,Yes,No,2,16,3.375
16498,4,0,Luggage,yes,Blue,Friend,Won,17,13,4,Blue,Stranger_Friend,20,13,Female,Yes,No,2,16,3.375
8754,4,0,Shadow,yes,Blue,Friend,Won,18,13,4,Blue,Stranger_Friend,20,13,Female,Yes,No,2,16,3.375
9284,4,0,Battery,yes,Blue,Friend,Won,19,13,4,Blue,Stranger_Friend,20,13,Female,Yes,No,2,16,3.375
7142,4,0,Cheat,yes,Blue,Friend,Won,20,13,4,Blue,Stranger_Friend,20,13,Female,Yes,No,2,16,3.375
,4,,Amnesia,yes,Blue,Friend,Out of time,21,13,4,Blue,Stranger_Friend,20,13,Female,Yes,No,2,16,3.375
24566,4,1,Immortal,yes,Blue,Friend,Lost,22,13,4,Blue,Stranger_Friend,20,13,Female,Yes,No,2,16,3.375
16731,4,0,Calories,yes,Blue,Friend,Won,23,13,4,Blue,Stranger_Friend,20,13,Female,Yes,No,2,16,3.375
8095,4,0,Basement,yes,Blue,Friend,Won,24,13,4,Blue,Stranger_Friend,20,13,Female,Yes,No,2,16,3.375
19211,4,0,Blush,yes,Blue,Friend,Won,25,13,4,Blue,Stranger_Friend,20,13,Female,Yes,No,2,16,3.375
23026,4,1,Beret,yes,Blue,Friend,Lost,26,13,4,Blue,Stranger_Friend,20,13,Female,Yes,No,2,16,3.375
25400,4,1,Antique,yes,Blue,Friend,Lost,27,13,4,Blue,Stranger_Friend,20,13,Female,Yes,No,2,16,3.375
8300,4,1,Flashlight,yes,Blue,Friend,Lost,28,13,4,Blue,Stranger_Friend,20,13,Female,Yes,No,2,16,3.375
11803,4,1,Bonfire,yes,Blue,Friend,Lost,29,13,4,Blue,Stranger_Friend,20,13,Female,Yes,No,2,16,3.375
,4,,Army,yes,Blue,Friend,Out of time,30,13,4,Blue,Stranger_Friend,20,13,Female,Yes,No,2,16,3.375
6994,4,1,Battle,yes,Blue,Friend,Lost,31,13,4,Blue,Stranger_Friend,20,13,Female,Yes,No,2,16,3.375
15211,4,1,Dribble,yes,Blue,Friend,Lost,32,13,4,Blue,Stranger_Friend,20,13,Female,Yes,No,2,16,3.375
14986,4,0,Polar Bear,yes,Blue,Friend,Won,33,13,4,Blue,Stranger_Friend,20,13,Female,Yes,No,2,16,3.375
23106,4,0,Bald,yes,Blue,Friend,Won,34,13,4,Blue,Stranger_Friend,20,13,Female,Yes,No,2,16,3.375
17772,4,0,Bikini,yes,Blue,Friend,Won,35,13,4,Blue,Stranger_Friend,20,13,Female,Yes,No,2,16,3.375
6201,4,1,Atlas,yes,Blue,Friend,Lost,36,13,4,Blue,Stranger_Friend,20,13,Female,Yes,No,2,16,3.375
10638,4,0,Smoke,yes,Red,Stranger,Won,1,14,4,Red,Stranger_Friend,20.5,14,Female,Yes,No,3,16,0
13978,4,0,Hiccup,yes,Red,Stranger,Won,2,14,4,Red,Stranger_Friend,20.5,14,Female,Yes,No,3,16,0
27592,4,1,Smear,yes,Red,Stranger,Lost,3,14,4,Red,Stranger_Friend,20.5,14,Female,Yes,No,3,16,0
9737,4,0,Tape,yes,Red,Stranger,Won,4,14,4,Red,Stranger_Friend,20.5,14,Female,Yes,No,3,16,0
7945,4,1,Strategy,yes,Red,Stranger,Lost,5,14,4,Red,Stranger_Friend,20.5,14,Female,Yes,No,3,16,0
,4,,Mad,yes,Red,Stranger,Out of time,6,14,4,Red,Stranger_Friend,20.5,14,Female,Yes,No,3,16,0
18618,4,0,Volcano,yes,Red,Stranger,Won,7,14,4,Red,Stranger_Friend,20.5,14,Female,Yes,No,3,16,0
7999,4,1,Wallet,yes,Red,Stranger,Lost,8,14,4,Red,Stranger_Friend,20.5,14,Female,Yes,No,3,16,0
24800,4,0,Stars,yes,Red,Stranger,Won,9,14,4,Red,Stranger_Friend,20.5,14,Female,Yes,No,3,16,0
5356,4,1,Sunburn,yes,Red,Stranger,Lost,10,14,4,Red,Stranger_Friend,20.5,14,Female,Yes,No,3,16,0
4081,4,1,Yo-Yo,yes,Red,Stranger,Lost,11,14,4,Red,Stranger_Friend,20.5,14,Female,Yes,No,3,16,0
2535,4,1,Quintuplets,yes,Red,Stranger,Lost,12,14,4,Red,Stranger_Friend,20.5,14,Female,Yes,No,3,16,0
19643,4,1,Wishing Well,yes,Red,Stranger,Lost,13,14,4,Red,Stranger_Friend,20.5,14,Female,Yes,No,3,16,0
28146,4,0,Trunk,yes,Red,Stranger,Won,14,14,4,Red,Stranger_Friend,20.5,14,Female,Yes,No,3,16,0
5651,4,0,Sunflower,yes,Red,Stranger,Won,15,14,4,Red,Stranger_Friend,20.5,14,Female,Yes,No,3,16,0
7966,4,0,Marriage,yes,Red,Stranger,Won,16,14,4,Red,Stranger_Friend,20.5,14,Female,Yes,No,3,16,0
13374,4,0,Snowboard,yes,Red,Stranger,Won,17,14,4,Red,Stranger_Friend,20.5,14,Female,Yes,No,3,16,0
13731,4,1,Tweezers,yes,Red,Stranger,Lost,18,14,4,Red,Stranger_Friend,20.5,14,Female,Yes,No,3,16,0
7028,4,0,Pool,yes,Red,Stranger,Won,19,14,4,Red,Stranger_Friend,20.5,14,Female,Yes,No,3,16,0
8252,4,0,Knife,yes,Red,Stranger,Won,20,14,4,Red,Stranger_Friend,20.5,14,Female,Yes,No,3,16,0
9764,4,0,Waffle,yes,Red,Stranger,Won,21,14,4,Red,Stranger_Friend,20.5,14,Female,Yes,No,3,16,0
,4,,Zebra,yes,Red,Stranger,Out of time,22,14,4,Red,Stranger_Friend,20.5,14,Female,Yes,No,3,16,0
27752,4,1,Snore,yes,Red,Stranger,Lost,23,14,4,Red,Stranger_Friend,20.5,14,Female,Yes,No,3,16,0
7553,4,0,Tip,yes,Red,Stranger,Won,24,14,4,Red,Stranger_Friend,20.5,14,Female,Yes,No,3,16,0
14345,4,1,Tuxedo,yes,Red,Stranger,Lost,25,14,4,Red,Stranger_Friend,20.5,14,Female,Yes,No,3,16,0
20018,4,0,Wine,yes,Red,Stranger,Won,26,14,4,Red,Stranger_Friend,20.5,14,Female,Yes,No,3,16,0
19521,4,0,Lighthouse,yes,Red,Stranger,Won,27,14,4,Red,Stranger_Friend,20.5,14,Female,Yes,No,3,16,0
21214,4,0,Watermelon,yes,Red,Stranger,Won,28,14,4,Red,Stranger_Friend,20.5,14,Female,Yes,No,3,16,0
6320,4,0,Polo,yes,Red,Stranger,Won,29,14,4,Red,Stranger_Friend,20.5,14,Female,Yes,No,3,16,0
7131,4,0,Hamster,yes,Red,Stranger,Won,30,14,4,Red,Stranger_Friend,20.5,14,Female,Yes,No,3,16,0
10881,4,1,Sleepwalk,yes,Red,Stranger,Lost,31,14,4,Red,Stranger_Friend,20.5,14,Female,Yes,No,3,16,0
6459,4,0,Yellow,yes,Red,Stranger,Won,32,14,4,Red,Stranger_Friend,20.5,14,Female,Yes,No,3,16,0
,4,,Scoop,yes,Red,Stranger,Out of time,33,14,4,Red,Stranger_Friend,20.5,14,Female,Yes,No,3,16,0
6728,4,0,Tag,yes,Red,Stranger,Won,34,14,4,Red,Stranger_Friend,20.5,14,Female,Yes,No,3,16,0
14607,4,0,Spy,yes,Red,Stranger,Won,35,14,4,Red,Stranger_Friend,20.5,14,Female,Yes,No,3,16,0
24381,4,0,Peak,yes,Red,Friend,Won,1,14,4,Red,Stranger_Friend,20.5,14,Female,Yes,No,3,15,3.625
9056,4,0,Vitamin C,yes,Red,Friend,Won,2,14,4,Red,Stranger_Friend,20.5,14,Female,Yes,No,3,15,3.625
15903,4,1,Windmill,yes,Red,Friend,Lost,3,14,4,Red,Stranger_Friend,20.5,14,Female,Yes,No,3,15,3.625
9435,4,0,Poem,yes,Red,Friend,Won,4,14,4,Red,Stranger_Friend,20.5,14,Female,Yes,No,3,15,3.625
8579,4,0,Stress,yes,Red,Friend,Won,5,14,4,Red,Stranger_Friend,20.5,14,Female,Yes,No,3,15,3.625
6818,4,0,Turkey,yes,Red,Friend,Won,6,14,4,Red,Stranger_Friend,20.5,14,Female,Yes,No,3,15,3.625
14556,4,1,Ransom,yes,Red,Friend,Lost,7,14,4,Red,Stranger_Friend,20.5,14,Female,Yes,No,3,15,3.625
8160,4,0,Tired,yes,Red,Friend,Won,8,14,4,Red,Stranger_Friend,20.5,14,Female,Yes,No,3,15,3.625
3339,4,1,Stagger,yes,Red,Friend,Lost,9,14,4,Red,Stranger_Friend,20.5,14,Female,Yes,No,3,15,3.625
10451,4,1,Surprise,yes,Red,Friend,Lost,10,14,4,Red,Stranger_Friend,20.5,14,Female,Yes,No,3,15,3.625
15821,4,1,Vote,yes,Red,Friend,Lost,11,14,4,Red,Stranger_Friend,20.5,14,Female,Yes,No,3,15,3.625
,4,,Trigger,yes,Red,Friend,Out of time,12,14,4,Red,Stranger_Friend,20.5,14,Female,Yes,No,3,15,3.625
17189,4,0,Snack,yes,Red,Friend,Won,13,14,4,Red,Stranger_Friend,20.5,14,Female,Yes,No,3,15,3.625
,4,,Midnight,yes,Red,Friend,Out of time,14,14,4,Red,Stranger_Friend,20.5,14,Female,Yes,No,3,15,3.625
13565,4,1,Shrimp,yes,Red,Friend,Lost,15,14,4,Red,Stranger_Friend,20.5,14,Female,Yes,No,3,15,3.625
11579,4,0,Valet,yes,Red,Friend,Won,16,14,4,Red,Stranger_Friend,20.5,14,Female,Yes,No,3,15,3.625
6267,4,1,Helmet,yes,Red,Friend,Lost,17,14,4,Red,Stranger_Friend,20.5,14,Female,Yes,No,3,15,3.625
6716,4,1,Theme Park,yes,Red,Friend,Lost,18,14,4,Red,Stranger_Friend,20.5,14,Female,Yes,No,3,15,3.625
9762,4,1,Stiff,yes,Red,Friend,Lost,19,14,4,Red,Stranger_Friend,20.5,14,Female,Yes,No,3,15,3.625
16561,4,0,Wrinkle,yes,Red,Friend,Won,20,14,4,Red,Stranger_Friend,20.5,14,Female,Yes,No,3,15,3.625
9945,4,1,Waiter,yes,Red,Friend,Lost,21,14,4,Red,Stranger_Friend,20.5,14,Female,Yes,No,3,15,3.625
12526,4,0,Straw,yes,Red,Friend,Won,22,14,4,Red,Stranger_Friend,20.5,14,Female,Yes,No,3,15,3.625
7696,4,0,Whisper,yes,Red,Friend,Won,23,14,4,Red,Stranger_Friend,20.5,14,Female,Yes,No,3,15,3.625
5837,4,1,Oatmeal,yes,Red,Friend,Lost,24,14,4,Red,Stranger_Friend,20.5,14,Female,Yes,No,3,15,3.625
10467,4,1,Watch,yes,Red,Friend,Lost,25,14,4,Red,Stranger_Friend,20.5,14,Female,Yes,No,3,15,3.625
15125,4,0,Salt,yes,Red,Friend,Won,26,14,4,Red,Stranger_Friend,20.5,14,Female,Yes,No,3,15,3.625
13765,4,0,Pen,yes,Red,Friend,Won,27,14,4,Red,Stranger_Friend,20.5,14,Female,Yes,No,3,15,3.625
13521,4,1,Violin,yes,Red,Friend,Lost,28,14,4,Red,Stranger_Friend,20.5,14,Female,Yes,No,3,15,3.625
19335,4,1,Snorkel,yes,Red,Friend,Lost,29,14,4,Red,Stranger_Friend,20.5,14,Female,Yes,No,3,15,3.625
6250,4,0,Wet,yes,Red,Friend,Won,30,14,4,Red,Stranger_Friend,20.5,14,Female,Yes,No,3,15,3.625
3365,4,1,Static,yes,Red,Friend,Lost,31,14,4,Red,Stranger_Friend,20.5,14,Female,Yes,No,3,15,3.625
25834,4,0,Strapless,yes,Red,Friend,Won,32,14,4,Red,Stranger_Friend,20.5,14,Female,Yes,No,3,15,3.625
22563,4,1,Thug,yes,Red,Friend,Lost,33,14,4,Red,Stranger_Friend,20.5,14,Female,Yes,No,3,15,3.625
11060,4,1,Snowman,yes,Red,Friend,Lost,34,14,4,Red,Stranger_Friend,20.5,14,Female,Yes,No,3,15,3.625
27102,4,1,Trolley Car,yes,Red,Friend,Lost,35,14,4,Red,Stranger_Friend,20.5,14,Female,Yes,No,3,15,3.625
13407,4,0,Truffle,yes,Red,Friend,Won,36,14,4,Red,Stranger_Friend,20.5,14,Female,Yes,No,3,15,3.625
14291,4,1,Marble,yes,Red,Friend,Lost,37,14,4,Red,Stranger_Friend,20.5,14,Female,Yes,No,3,15,3.625
9949,4,0,Scientist,yes,Purple,Stranger,Won,1,15,4,Purple,Stranger_Friend,19.5,15,Female,Yes,No,1,13,0
11044,4,1,Graduation,yes,Purple,Stranger,Lost,2,15,4,Purple,Stranger_Friend,19.5,15,Female,Yes,No,1,13,0
11411,4,1,Finger,yes,Purple,Stranger,Lost,3,15,4,Purple,Stranger_Friend,19.5,15,Female,Yes,No,1,13,0
6610,4,0,Test,yes,Purple,Stranger,Won,4,15,4,Purple,Stranger_Friend,19.5,15,Female,Yes,No,1,13,0
10627,4,0,Fireplace,yes,Purple,Stranger,Won,5,15,4,Purple,Stranger_Friend,19.5,15,Female,Yes,No,1,13,0
7433,4,1,Slow,yes,Purple,Stranger,Lost,6,15,4,Purple,Stranger_Friend,19.5,15,Female,Yes,No,1,13,0
13437,4,0,Hug,yes,Purple,Stranger,Won,7,15,4,Purple,Stranger_Friend,19.5,15,Female,Yes,No,1,13,0
18212,4,1,Oyster,yes,Purple,Stranger,Lost,8,15,4,Purple,Stranger_Friend,19.5,15,Female,Yes,No,1,13,0
14101,4,0,Sushi,yes,Purple,Stranger,Won,9,15,4,Purple,Stranger_Friend,19.5,15,Female,Yes,No,1,13,0
6702,4,0,Owl,yes,Purple,Stranger,Won,10,15,4,Purple,Stranger_Friend,19.5,15,Female,Yes,No,1,13,0
17799,4,1,Skunk,yes,Purple,Stranger,Lost,11,15,4,Purple,Stranger_Friend,19.5,15,Female,Yes,No,1,13,0
5311,4,1,Mix,yes,Purple,Stranger,Lost,12,15,4,Purple,Stranger_Friend,19.5,15,Female,Yes,No,1,13,0
14081,4,0,Jury,yes,Purple,Stranger,Won,13,15,4,Purple,Stranger_Friend,19.5,15,Female,Yes,No,1,13,0
14583,4,0,Point,yes,Purple,Stranger,Won,14,15,4,Purple,Stranger_Friend,19.5,15,Female,Yes,No,1,13,0
2899,4,1,Underdog,yes,Purple,Stranger,Lost,15,15,4,Purple,Stranger_Friend,19.5,15,Female,Yes,No,1,13,0
18353,4,0,Puke,yes,Purple,Stranger,Won,16,15,4,Purple,Stranger_Friend,19.5,15,Female,Yes,No,1,13,0
2285,4,1,Skyline,yes,Purple,Stranger,Lost,17,15,4,Purple,Stranger_Friend,19.5,15,Female,Yes,No,1,13,0
28064,4,1,Hiking,yes,Purple,Stranger,Lost,18,15,4,Purple,Stranger_Friend,19.5,15,Female,Yes,No,1,13,0
2743,4,1,Ivory,yes,Purple,Stranger,Lost,19,15,4,Purple,Stranger_Friend,19.5,15,Female,Yes,No,1,13,0
16924,4,0,Navy,yes,Purple,Stranger,Won,20,15,4,Purple,Stranger_Friend,19.5,15,Female,Yes,No,1,13,0
12085,4,0,Snooze,yes,Purple,Stranger,Won,21,15,4,Purple,Stranger_Friend,19.5,15,Female,Yes,No,1,13,0
19272,4,1,Mattress,yes,Purple,Stranger,Lost,22,15,4,Purple,Stranger_Friend,19.5,15,Female,Yes,No,1,13,0
3183,4,1,Nozzle,yes,Purple,Stranger,Lost,23,15,4,Purple,Stranger_Friend,19.5,15,Female,Yes,No,1,13,0
8770,4,0,Scenery,yes,Purple,Stranger,Won,24,15,4,Purple,Stranger_Friend,19.5,15,Female,Yes,No,1,13,0
,4,,Ping-Pong,yes,Purple,Stranger,Out of time,25,15,4,Purple,Stranger_Friend,19.5,15,Female,Yes,No,1,13,0
7884,4,1,Tart,yes,Purple,Stranger,Lost,26,15,4,Purple,Stranger_Friend,19.5,15,Female,Yes,No,1,13,0
21249,4,1,Pastry,yes,Purple,Stranger,Lost,27,15,4,Purple,Stranger_Friend,19.5,15,Female,Yes,No,1,13,0
5181,4,0,Fly,yes,Purple,Stranger,Won,28,15,4,Purple,Stranger_Friend,19.5,15,Female,Yes,No,1,13,0
6468,4,0,Prom,yes,Purple,Stranger,Won,29,15,4,Purple,Stranger_Friend,19.5,15,Female,Yes,No,1,13,0
10529,4,0,Marshmallow,yes,Purple,Stranger,Won,30,15,4,Purple,Stranger_Friend,19.5,15,Female,Yes,No,1,13,0
3953,4,1,Sulk,yes,Purple,Stranger,Lost,31,15,4,Purple,Stranger_Friend,19.5,15,Female,Yes,No,1,13,0
6961,4,1,Dummy,yes,Purple,Stranger,Lost,32,15,4,Purple,Stranger_Friend,19.5,15,Female,Yes,No,1,13,0
,4,,Peacock,yes,Purple,Stranger,Out of time,33,15,4,Purple,Stranger_Friend,19.5,15,Female,Yes,No,1,13,0
3141,4,1,Tavern,yes,Purple,Stranger,Lost,34,15,4,Purple,Stranger_Friend,19.5,15,Female,Yes,No,1,13,0
7535,4,0,Job,yes,Purple,Stranger,Won,35,15,4,Purple,Stranger_Friend,19.5,15,Female,Yes,No,1,13,0
10532,4,0,Mountain,yes,Purple,Stranger,Won,36,15,4,Purple,Stranger_Friend,19.5,15,Female,Yes,No,1,13,0
27977,4,1,Tonsils,yes,Purple,Stranger,Lost,37,15,4,Purple,Stranger_Friend,19.5,15,Female,Yes,No,1,13,0
8441,4,0,Temperature,yes,Purple,Stranger,Won,38,15,4,Purple,Stranger_Friend,19.5,15,Female,Yes,No,1,13,0
27284,4,1,Stale,yes,Purple,Stranger,Lost,39,15,4,Purple,Stranger_Friend,19.5,15,Female,Yes,No,1,13,0
15447,4,0,Paycheck,yes,Purple,Stranger,Won,40,15,4,Purple,Stranger_Friend,19.5,15,Female,Yes,No,1,13,0
2282,4,1,Turnover,yes,Purple,Stranger,Lost,41,15,4,Purple,Stranger_Friend,19.5,15,Female,Yes,No,1,13,0
11100,4,0,Paw,yes,Purple,Stranger,Won,42,15,4,Purple,Stranger_Friend,19.5,15,Female,Yes,No,1,13,0
11602,4,1,Lemon,yes,Purple,Stranger,Lost,43,15,4,Purple,Stranger_Friend,19.5,15,Female,Yes,No,1,13,0
14658,4,0,Mascara,yes,Purple,Friend,Won,1,15,4,Purple,Stranger_Friend,19.5,15,Female,Yes,No,1,14,5.5
8499,4,0,Jail,yes,Purple,Friend,Won,2,15,4,Purple,Stranger_Friend,19.5,15,Female,Yes,No,1,14,5.5
4252,4,0,Lake,yes,Purple,Friend,Won,3,15,4,Purple,Stranger_Friend,19.5,15,Female,Yes,No,1,14,5.5
17244,4,0,Dream,yes,Purple,Friend,Won,4,15,4,Purple,Stranger_Friend,19.5,15,Female,Yes,No,1,14,5.5
10084,4,1,Kangaroo,yes,Purple,Friend,Lost,5,15,4,Purple,Stranger_Friend,19.5,15,Female,Yes,No,1,14,5.5
6321,4,0,Lily,yes,Purple,Friend,Won,6,15,4,Purple,Stranger_Friend,19.5,15,Female,Yes,No,1,14,5.5
17796,4,1,Shaving Cream,yes,Purple,Friend,Lost,7,15,4,Purple,Stranger_Friend,19.5,15,Female,Yes,No,1,14,5.5
15838,4,0,Touchdown,yes,Purple,Friend,Won,8,15,4,Purple,Stranger_Friend,19.5,15,Female,Yes,No,1,14,5.5
11220,4,0,Giraffe,yes,Purple,Friend,Won,9,15,4,Purple,Stranger_Friend,19.5,15,Female,Yes,No,1,14,5.5
9330,4,0,Rainbow,yes,Purple,Friend,Won,10,15,4,Purple,Stranger_Friend,19.5,15,Female,Yes,No,1,14,5.5
16637,4,1,In-Law,yes,Purple,Friend,Lost,11,15,4,Purple,Stranger_Friend,19.5,15,Female,Yes,No,1,14,5.5
9596,4,0,Flip Flops,yes,Purple,Friend,Won,12,15,4,Purple,Stranger_Friend,19.5,15,Female,Yes,No,1,14,5.5
11215,4,0,Saddle,yes,Purple,Friend,Won,13,15,4,Purple,Stranger_Friend,19.5,15,Female,Yes,No,1,14,5.5
18562,4,0,Quack,yes,Purple,Friend,Won,14,15,4,Purple,Stranger_Friend,19.5,15,Female,Yes,No,1,14,5.5
12463,4,0,Negative,yes,Purple,Friend,Won,15,15,4,Purple,Stranger_Friend,19.5,15,Female,Yes,No,1,14,5.5
8193,4,0,Spring Break,yes,Purple,Friend,Won,16,15,4,Purple,Stranger_Friend,19.5,15,Female,Yes,No,1,14,5.5
7455,4,0,Sunny,yes,Purple,Friend,Won,17,15,4,Purple,Stranger_Friend,19.5,15,Female,Yes,No,1,14,5.5
5098,4,0,Sneeze,yes,Purple,Friend,Won,18,15,4,Purple,Stranger_Friend,19.5,15,Female,Yes,No,1,14,5.5
8166,4,1,Rock,yes,Purple,Friend,Lost,19,15,4,Purple,Stranger_Friend,19.5,15,Female,Yes,No,1,14,5.5
26846,4,1,Monster,yes,Purple,Friend,Lost,20,15,4,Purple,Stranger_Friend,19.5,15,Female,Yes,No,1,14,5.5
5951,4,0,Boss,yes,Purple,Friend,Won,21,15,4,Purple,Stranger_Friend,19.5,15,Female,Yes,No,1,14,5.5
24642,4,1,Intelligent,yes,Purple,Friend,Lost,22,15,4,Purple,Stranger_Friend,19.5,15,Female,Yes,No,1,14,5.5
3099,4,1,Path,yes,Purple,Friend,Lost,23,15,4,Purple,Stranger_Friend,19.5,15,Female,Yes,No,1,14,5.5
13271,4,0,Toll,yes,Purple,Friend,Won,24,15,4,Purple,Stranger_Friend,19.5,15,Female,Yes,No,1,14,5.5
,4,,Silk,yes,Purple,Friend,Out of time,25,15,4,Purple,Stranger_Friend,19.5,15,Female,Yes,No,1,14,5.5
21147,4,1,Fog,yes,Purple,Friend,Lost,26,15,4,Purple,Stranger_Friend,19.5,15,Female,Yes,No,1,14,5.5
,4,,Pickpocket,yes,Purple,Friend,Out of time,27,15,4,Purple,Stranger_Friend,19.5,15,Female,Yes,No,1,14,5.5
14499,4,0,Mistletoe,yes,Purple,Friend,Won,28,15,4,Purple,Stranger_Friend,19.5,15,Female,Yes,No,1,14,5.5
15649,4,1,Panic,yes,Purple,Friend,Lost,29,15,4,Purple,Stranger_Friend,19.5,15,Female,Yes,No,1,14,5.5
2972,4,1,Fumble,yes,Purple,Friend,Lost,30,15,4,Purple,Stranger_Friend,19.5,15,Female,Yes,No,1,14,5.5
9920,4,0,Huddle,yes,Purple,Friend,Won,31,15,4,Purple,Stranger_Friend,19.5,15,Female,Yes,No,1,14,5.5
27548,4,0,Tickle,yes,Purple,Friend,Won,32,15,4,Purple,Stranger_Friend,19.5,15,Female,Yes,No,1,14,5.5
21413,4,1,Tightrope,yes,Purple,Friend,Lost,33,15,4,Purple,Stranger_Friend,19.5,15,Female,Yes,No,1,14,5.5
2685,4,1,Race Horse,yes,Purple,Friend,Lost,34,15,4,Purple,Stranger_Friend,19.5,15,Female,Yes,No,1,14,5.5
15431,4,0,Slap,yes,Purple,Friend,Won,35,15,4,Purple,Stranger_Friend,19.5,15,Female,Yes,No,1,14,5.5
8779,4,0,Note,yes,Purple,Friend,Won,36,15,4,Purple,Stranger_Friend,19.5,15,Female,Yes,No,1,14,5.5
11420,4,0,Surgery,yes,Purple,Friend,Won,37,15,4,Purple,Stranger_Friend,19.5,15,Female,Yes,No,1,14,5.5
5718,4,1,Survive,yes,Purple,Friend,Lost,38,15,4,Purple,Stranger_Friend,19.5,15,Female,Yes,No,1,14,5.5
20595,4,1,Plant,yes,Purple,Friend,Lost,39,15,4,Purple,Stranger_Friend,19.5,15,Female,Yes,No,1,14,5.5
3300,4,1,Brandy,yes,Yellow,Stranger,Lost,1,16,4,Yellow,Stranger_Friend,21,16,Female,Yes,No,1,14,0
9203,4,0,Helicopter,yes,Yellow,Stranger,Won,2,16,4,Yellow,Stranger_Friend,21,16,Female,Yes,No,1,14,0
14373,4,0,Paint,yes,Yellow,Stranger,Won,3,16,4,Yellow,Stranger_Friend,21,16,Female,Yes,No,1,14,0
13798,4,0,Organic,yes,Yellow,Stranger,Won,4,16,4,Yellow,Stranger_Friend,21,16,Female,Yes,No,1,14,0
13960,4,0,Newspaper,yes,Yellow,Stranger,Won,5,16,4,Yellow,Stranger_Friend,21,16,Female,Yes,No,1,14,0
12773,4,0,Flamingo,yes,Yellow,Stranger,Won,6,16,4,Yellow,Stranger_Friend,21,16,Female,Yes,No,1,14,0
,4,,Spider,yes,Yellow,Stranger,Out of time,7,16,4,Yellow,Stranger_Friend,21,16,Female,Yes,No,1,14,0
15348,4,0,Island,yes,Yellow,Stranger,Won,8,16,4,Yellow,Stranger_Friend,21,16,Female,Yes,No,1,14,0
2649,4,1,Geyser,yes,Yellow,Stranger,Lost,9,16,4,Yellow,Stranger_Friend,21,16,Female,Yes,No,1,14,0
8274,4,1,Engine,yes,Yellow,Stranger,Lost,10,16,4,Yellow,Stranger_Friend,21,16,Female,Yes,No,1,14,0
4265,4,1,Gallery,yes,Yellow,Stranger,Lost,11,16,4,Yellow,Stranger_Friend,21,16,Female,Yes,No,1,14,0
16605,4,0,Reindeer,yes,Yellow,Stranger,Won,12,16,4,Yellow,Stranger_Friend,21,16,Female,Yes,No,1,14,0
8569,4,0,Clumsy,yes,Yellow,Stranger,Won,13,16,4,Yellow,Stranger_Friend,21,16,Female,Yes,No,1,14,0
19401,4,1,Quit,yes,Yellow,Stranger,Lost,14,16,4,Yellow,Stranger_Friend,21,16,Female,Yes,No,1,14,0
17513,4,0,Lizard,yes,Yellow,Stranger,Won,15,16,4,Yellow,Stranger_Friend,21,16,Female,Yes,No,1,14,0
11038,4,0,Soup,yes,Yellow,Stranger,Won,16,16,4,Yellow,Stranger_Friend,21,16,Female,Yes,No,1,14,0
27041,4,0,Map,yes,Yellow,Stranger,Won,17,16,4,Yellow,Stranger_Friend,21,16,Female,Yes,No,1,14,0
3183,4,1,Decipher,yes,Yellow,Stranger,Lost,18,16,4,Yellow,Stranger_Friend,21,16,Female,Yes,No,1,14,0
23656,4,1,Park,yes,Yellow,Stranger,Lost,19,16,4,Yellow,Stranger_Friend,21,16,Female,Yes,No,1,14,0
2857,4,1,Fajita,yes,Yellow,Stranger,Lost,20,16,4,Yellow,Stranger_Friend,21,16,Female,Yes,No,1,14,0
9500,4,0,Forest,yes,Yellow,Stranger,Won,21,16,4,Yellow,Stranger_Friend,21,16,Female,Yes,No,1,14,0
24766,4,1,Pretzel,yes,Yellow,Stranger,Lost,22,16,4,Yellow,Stranger_Friend,21,16,Female,Yes,No,1,14,0
13210,4,0,Fake,yes,Yellow,Stranger,Won,23,16,4,Yellow,Stranger_Friend,21,16,Female,Yes,No,1,14,0
22130,4,0,Invitation,yes,Yellow,Stranger,Won,24,16,4,Yellow,Stranger_Friend,21,16,Female,Yes,No,1,14,0
25258,4,1,Rug,yes,Yellow,Stranger,Lost,25,16,4,Yellow,Stranger_Friend,21,16,Female,Yes,No,1,14,0
14543,4,0,Desert,yes,Yellow,Stranger,Won,26,16,4,Yellow,Stranger_Friend,21,16,Female,Yes,No,1,14,0
14597,4,1,Heart,yes,Yellow,Stranger,Lost,27,16,4,Yellow,Stranger_Friend,21,16,Female,Yes,No,1,14,0
25922,4,1,Honesty,yes,Yellow,Stranger,Lost,28,16,4,Yellow,Stranger_Friend,21,16,Female,Yes,No,1,14,0
26926,4,0,Detective,yes,Yellow,Stranger,Won,29,16,4,Yellow,Stranger_Friend,21,16,Female,Yes,No,1,14,0
21666,4,0,Insomnia,yes,Yellow,Stranger,Won,30,16,4,Yellow,Stranger_Friend,21,16,Female,Yes,No,1,14,0
10853,4,0,Butter,yes,Yellow,Stranger,Won,31,16,4,Yellow,Stranger_Friend,21,16,Female,Yes,No,1,14,0
20774,4,1,Doll,yes,Yellow,Stranger,Lost,32,16,4,Yellow,Stranger_Friend,21,16,Female,Yes,No,1,14,0
4758,4,0,Chandelier,yes,Yellow,Stranger,Won,33,16,4,Yellow,Stranger_Friend,21,16,Female,Yes,No,1,14,0
4290,4,1,Garlic,yes,Yellow,Stranger,Lost,34,16,4,Yellow,Stranger_Friend,21,16,Female,Yes,No,1,14,0
3429,4,1,Diner,yes,Yellow,Stranger,Lost,35,16,4,Yellow,Stranger_Friend,21,16,Female,Yes,No,1,14,0
4869,4,1,Cast,yes,Yellow,Stranger,Lost,36,16,4,Yellow,Stranger_Friend,21,16,Female,Yes,No,1,14,0
15163,4,1,Geometry,yes,Yellow,Friend,Lost,1,16,4,Yellow,Stranger_Friend,21,16,Female,Yes,No,1,13,4.625
15450,4,0,Chopsticks,yes,Yellow,Friend,Won,2,16,4,Yellow,Stranger_Friend,21,16,Female,Yes,No,1,13,4.625
3093,4,1,Pat,yes,Yellow,Friend,Lost,3,16,4,Yellow,Stranger_Friend,21,16,Female,Yes,No,1,13,4.625
12825,4,0,Lunch,yes,Yellow,Friend,Won,4,16,4,Yellow,Stranger_Friend,21,16,Female,Yes,No,1,13,4.625
10334,4,0,Ghost,yes,Yellow,Friend,Won,5,16,4,Yellow,Stranger_Friend,21,16,Female,Yes,No,1,13,4.625
15612,4,1,Blow,yes,Yellow,Friend,Lost,6,16,4,Yellow,Stranger_Friend,21,16,Female,Yes,No,1,13,4.625
12424,4,1,Money,yes,Yellow,Friend,Lost,7,16,4,Yellow,Stranger_Friend,21,16,Female,Yes,No,1,13,4.625
2550,4,1,Sauna,yes,Yellow,Friend,Lost,8,16,4,Yellow,Stranger_Friend,21,16,Female,Yes,No,1,13,4.625
11337,4,0,License,yes,Yellow,Friend,Won,9,16,4,Yellow,Stranger_Friend,21,16,Female,Yes,No,1,13,4.625
19496,4,0,Coach,yes,Yellow,Friend,Won,10,16,4,Yellow,Stranger_Friend,21,16,Female,Yes,No,1,13,4.625
8946,4,1,Brown,yes,Yellow,Friend,Lost,11,16,4,Yellow,Stranger_Friend,21,16,Female,Yes,No,1,13,4.625
19246,4,0,Honey,yes,Yellow,Friend,Won,12,16,4,Yellow,Stranger_Friend,21,16,Female,Yes,No,1,13,4.625
11882,4,0,Cobweb,yes,Yellow,Friend,Won,13,16,4,Yellow,Stranger_Friend,21,16,Female,Yes,No,1,13,4.625
23101,4,0,Infinity,yes,Yellow,Friend,Won,14,16,4,Yellow,Stranger_Friend,21,16,Female,Yes,No,1,13,4.625
10628,4,1,Dimples,yes,Yellow,Friend,Lost,15,16,4,Yellow,Stranger_Friend,21,16,Female,Yes,No,1,13,4.625
12648,4,0,Costume,yes,Yellow,Friend,Won,16,16,4,Yellow,Stranger_Friend,21,16,Female,Yes,No,1,13,4.625
14177,4,0,Know,yes,Yellow,Friend,Won,17,16,4,Yellow,Stranger_Friend,21,16,Female,Yes,No,1,13,4.625
16168,4,1,Kite,yes,Yellow,Friend,Lost,18,16,4,Yellow,Stranger_Friend,21,16,Female,Yes,No,1,13,4.625
4235,4,1,Snob,yes,Yellow,Friend,Lost,19,16,4,Yellow,Stranger_Friend,21,16,Female,Yes,No,1,13,4.625
11798,4,1,Nutcracker,yes,Yellow,Friend,Lost,20,16,4,Yellow,Stranger_Friend,21,16,Female,Yes,No,1,13,4.625
25509,4,1,Mop,yes,Yellow,Friend,Lost,21,16,4,Yellow,Stranger_Friend,21,16,Female,Yes,No,1,13,4.625
25479,4,0,Band,yes,Yellow,Friend,Won,22,16,4,Yellow,Stranger_Friend,21,16,Female,Yes,No,1,13,4.625
17363,4,0,Earth,yes,Yellow,Friend,Won,23,16,4,Yellow,Stranger_Friend,21,16,Female,Yes,No,1,13,4.625
22961,4,0,Artist,yes,Yellow,Friend,Won,24,16,4,Yellow,Stranger_Friend,21,16,Female,Yes,No,1,13,4.625
8225,4,0,Circle,yes,Yellow,Friend,Won,25,16,4,Yellow,Stranger_Friend,21,16,Female,Yes,No,1,13,4.625
14485,4,0,Lipstick,yes,Yellow,Friend,Won,26,16,4,Yellow,Stranger_Friend,21,16,Female,Yes,No,1,13,4.625
9306,4,1,Butterfly,yes,Yellow,Friend,Lost,27,16,4,Yellow,Stranger_Friend,21,16,Female,Yes,No,1,13,4.625
3046,4,1,Jackpot,yes,Yellow,Friend,Lost,28,16,4,Yellow,Stranger_Friend,21,16,Female,Yes,No,1,13,4.625
16520,4,1,Feather,yes,Yellow,Friend,Lost,29,16,4,Yellow,Stranger_Friend,21,16,Female,Yes,No,1,13,4.625
21850,4,0,Forecast,yes,Yellow,Friend,Won,30,16,4,Yellow,Stranger_Friend,21,16,Female,Yes,No,1,13,4.625
17835,4,1,Deck,yes,Yellow,Friend,Lost,31,16,4,Yellow,Stranger_Friend,21,16,Female,Yes,No,1,13,4.625
,4,,Pomegranate,yes,Yellow,Friend,Out of time,32,16,4,Yellow,Stranger_Friend,21,16,Female,Yes,No,1,13,4.625
11138,4,0,Confetti,yes,Yellow,Friend,Won,33,16,4,Yellow,Stranger_Friend,21,16,Female,Yes,No,1,13,4.625
22871,4,1,Ancient,yes,Yellow,Friend,Lost,34,16,4,Yellow,Stranger_Friend,21,16,Female,Yes,No,1,13,4.625
,5,,Atlas,yes,Blue,Friend,Out of time,1,17,5,Blue,Friend_Stranger,20,17,Female,Yes,Yes,3,19,6
17870,5,0,Appendix,yes,Blue,Friend,Won,2,17,5,Blue,Friend_Stranger,20,17,Female,Yes,Yes,3,19,6
19206,5,0,Bridge,yes,Blue,Friend,Won,3,17,5,Blue,Friend_Stranger,20,17,Female,Yes,Yes,3,19,6
12798,5,0,Bowling Alley,yes,Blue,Friend,Won,4,17,5,Blue,Friend_Stranger,20,17,Female,Yes,Yes,3,19,6
9015,5,0,Motorcycle,yes,Blue,Friend,Won,5,17,5,Blue,Friend_Stranger,20,17,Female,Yes,Yes,3,19,6
9630,5,0,Crutches,yes,Blue,Friend,Won,6,17,5,Blue,Friend_Stranger,20,17,Female,Yes,Yes,3,19,6
9787,5,0,Honeymoon,yes,Blue,Friend,Won,7,17,5,Blue,Friend_Stranger,20,17,Female,Yes,Yes,3,19,6
21540,5,0,Basement,yes,Blue,Friend,Won,8,17,5,Blue,Friend_Stranger,20,17,Female,Yes,Yes,3,19,6
18213,5,0,Battle,yes,Blue,Friend,Won,9,17,5,Blue,Friend_Stranger,20,17,Female,Yes,Yes,3,19,6
6623,5,0,Cartoon,yes,Blue,Friend,Won,10,17,5,Blue,Friend_Stranger,20,17,Female,Yes,Yes,3,19,6
9622,5,0,Angel,yes,Blue,Friend,Won,11,17,5,Blue,Friend_Stranger,20,17,Female,Yes,Yes,3,19,6
10419,5,0,Defrost,yes,Blue,Friend,Won,12,17,5,Blue,Friend_Stranger,20,17,Female,Yes,Yes,3,19,6
8379,5,0,Battery,yes,Blue,Friend,Won,13,17,5,Blue,Friend_Stranger,20,17,Female,Yes,Yes,3,19,6
11697,5,0,Bonfire,yes,Blue,Friend,Won,14,17,5,Blue,Friend_Stranger,20,17,Female,Yes,Yes,3,19,6
10326,5,0,Clown,yes,Blue,Friend,Won,15,17,5,Blue,Friend_Stranger,20,17,Female,Yes,Yes,3,19,6
8899,5,0,Claustrophobia,yes,Blue,Friend,Won,16,17,5,Blue,Friend_Stranger,20,17,Female,Yes,Yes,3,19,6
25590,5,1,Book,yes,Blue,Friend,Lost,17,17,5,Blue,Friend_Stranger,20,17,Female,Yes,Yes,3,19,6
26910,5,1,Airport,yes,Blue,Friend,Lost,18,17,5,Blue,Friend_Stranger,20,17,Female,Yes,Yes,3,19,6
5346,5,0,Balloon,yes,Blue,Friend,Won,19,17,5,Blue,Friend_Stranger,20,17,Female,Yes,Yes,3,19,6
21143,5,0,Army,yes,Blue,Friend,Won,20,17,5,Blue,Friend_Stranger,20,17,Female,Yes,Yes,3,19,6
,5,,Cockroach,yes,Blue,Friend,Out of time,21,17,5,Blue,Friend_Stranger,20,17,Female,Yes,Yes,3,19,6
12955,5,1,Crawl,yes,Blue,Friend,Lost,22,17,5,Blue,Friend_Stranger,20,17,Female,Yes,Yes,3,19,6
13768,5,0,Gallon,yes,Blue,Friend,Won,23,17,5,Blue,Friend_Stranger,20,17,Female,Yes,Yes,3,19,6
13834,5,0,Dribble,yes,Blue,Friend,Won,24,17,5,Blue,Friend_Stranger,20,17,Female,Yes,Yes,3,19,6
15156,5,0,Daydream,yes,Blue,Friend,Won,25,17,5,Blue,Friend_Stranger,20,17,Female,Yes,Yes,3,19,6
5893,5,0,Cowboy,yes,Blue,Friend,Won,26,17,5,Blue,Friend_Stranger,20,17,Female,Yes,Yes,3,19,6
7712,5,1,Fame,yes,Blue,Friend,Lost,27,17,5,Blue,Friend_Stranger,20,17,Female,Yes,Yes,3,19,6
13983,5,0,Blister,yes,Blue,Friend,Won,28,17,5,Blue,Friend_Stranger,20,17,Female,Yes,Yes,3,19,6
9230,5,0,Cheat,yes,Blue,Friend,Won,29,17,5,Blue,Friend_Stranger,20,17,Female,Yes,Yes,3,19,6
14416,5,0,Fidget,yes,Blue,Friend,Won,30,17,5,Blue,Friend_Stranger,20,17,Female,Yes,Yes,3,19,6
12127,5,0,Oil,yes,Blue,Friend,Won,31,17,5,Blue,Friend_Stranger,20,17,Female,Yes,Yes,3,19,6
10921,5,0,Brain,yes,Blue,Friend,Won,32,17,5,Blue,Friend_Stranger,20,17,Female,Yes,Yes,3,19,6
19768,5,0,Postcard,yes,Blue,Friend,Won,33,17,5,Blue,Friend_Stranger,20,17,Female,Yes,Yes,3,19,6
,5,,Bartender,yes,Blue,Friend,Out of time,34,17,5,Blue,Friend_Stranger,20,17,Female,Yes,Yes,3,19,6
13609,5,1,Flames,yes,Blue,Friend,Lost,35,17,5,Blue,Friend_Stranger,20,17,Female,Yes,Yes,3,19,6
25272,5,1,Design,yes,Blue,Stranger,Lost,1,17,5,Blue,Friend_Stranger,20,17,Female,Yes,Yes,3,18,0
9553,5,0,Elf,yes,Blue,Stranger,Won,2,17,5,Blue,Friend_Stranger,20,17,Female,Yes,Yes,3,18,0
6935,5,0,Burp,yes,Blue,Stranger,Won,3,17,5,Blue,Friend_Stranger,20,17,Female,Yes,Yes,3,18,0
,5,,Headline,yes,Blue,Stranger,Out of time,4,17,5,Blue,Friend_Stranger,20,17,Female,Yes,Yes,3,18,0
12599,5,0,Chocolate,yes,Blue,Stranger,Won,5,17,5,Blue,Friend_Stranger,20,17,Female,Yes,Yes,3,18,0
15121,5,0,Career,yes,Blue,Stranger,Won,6,17,5,Blue,Friend_Stranger,20,17,Female,Yes,Yes,3,18,0
5962,5,1,Antique,yes,Blue,Stranger,Lost,7,17,5,Blue,Friend_Stranger,20,17,Female,Yes,Yes,3,18,0
20795,5,1,Bunny,yes,Blue,Stranger,Lost,8,17,5,Blue,Friend_Stranger,20,17,Female,Yes,Yes,3,18,0
26424,5,0,Call,yes,Blue,Stranger,Won,9,17,5,Blue,Friend_Stranger,20,17,Female,Yes,Yes,3,18,0
21144,5,0,Bald,yes,Blue,Stranger,Won,10,17,5,Blue,Friend_Stranger,20,17,Female,Yes,Yes,3,18,0
12995,5,0,Bikini,yes,Blue,Stranger,Won,11,17,5,Blue,Friend_Stranger,20,17,Female,Yes,Yes,3,18,0
12391,5,0,Farm,yes,Blue,Stranger,Won,12,17,5,Blue,Friend_Stranger,20,17,Female,Yes,Yes,3,18,0
8313,5,0,Bag,yes,Blue,Stranger,Won,13,17,5,Blue,Friend_Stranger,20,17,Female,Yes,Yes,3,18,0
18797,5,1,Extreme,yes,Blue,Stranger,Lost,14,17,5,Blue,Friend_Stranger,20,17,Female,Yes,Yes,3,18,0
26654,5,1,Blink,yes,Blue,Stranger,Lost,15,17,5,Blue,Friend_Stranger,20,17,Female,Yes,Yes,3,18,0
9867,5,0,Doctor,yes,Blue,Stranger,Won,16,17,5,Blue,Friend_Stranger,20,17,Female,Yes,Yes,3,18,0
12414,5,0,Grease,yes,Blue,Stranger,Won,17,17,5,Blue,Friend_Stranger,20,17,Female,Yes,Yes,3,18,0
11636,5,0,Beach,yes,Blue,Stranger,Won,18,17,5,Blue,Friend_Stranger,20,17,Female,Yes,Yes,3,18,0
9194,5,0,Drive,yes,Blue,Stranger,Won,19,17,5,Blue,Friend_Stranger,20,17,Female,Yes,Yes,3,18,0
5495,5,1,Beret,yes,Blue,Stranger,Lost,20,17,5,Blue,Friend_Stranger,20,17,Female,Yes,Yes,3,18,0
11501,5,0,Handcuffs,yes,Blue,Stranger,Won,21,17,5,Blue,Friend_Stranger,20,17,Female,Yes,Yes,3,18,0
20661,5,0,Bargain,yes,Blue,Stranger,Won,22,17,5,Blue,Friend_Stranger,20,17,Female,Yes,Yes,3,18,0
10047,5,1,Bait,yes,Blue,Stranger,Lost,23,17,5,Blue,Friend_Stranger,20,17,Female,Yes,Yes,3,18,0
19136,5,0,Boardwalk,yes,Blue,Stranger,Won,24,17,5,Blue,Friend_Stranger,20,17,Female,Yes,Yes,3,18,0
9763,5,1,Adhesive,yes,Blue,Stranger,Lost,25,17,5,Blue,Friend_Stranger,20,17,Female,Yes,Yes,3,18,0
27658,5,1,Hose,yes,Blue,Stranger,Lost,26,17,5,Blue,Friend_Stranger,20,17,Female,Yes,Yes,3,18,0
15072,5,0,Flashlight,yes,Blue,Stranger,Won,27,17,5,Blue,Friend_Stranger,20,17,Female,Yes,Yes,3,18,0
7017,5,1,Bayou,yes,Blue,Stranger,Lost,28,17,5,Blue,Friend_Stranger,20,17,Female,Yes,Yes,3,18,0
13907,5,0,Acne,yes,Blue,Stranger,Won,29,17,5,Blue,Friend_Stranger,20,17,Female,Yes,Yes,3,18,0
13976,5,0,Shadow,yes,Blue,Stranger,Won,30,17,5,Blue,Friend_Stranger,20,17,Female,Yes,Yes,3,18,0
28155,5,0,Bacon,yes,Blue,Stranger,Won,31,17,5,Blue,Friend_Stranger,20,17,Female,Yes,Yes,3,18,0
26784,5,1,Academy,yes,Blue,Stranger,Lost,32,17,5,Blue,Friend_Stranger,20,17,Female,Yes,Yes,3,18,0
20591,5,1,Ache,yes,Blue,Stranger,Lost,33,17,5,Blue,Friend_Stranger,20,17,Female,Yes,Yes,3,18,0
14896,5,0,Yellow,yes,Red,Friend,Won,1,18,5,Red,Friend_Stranger,21,18,Female,Yes,Yes,3,20,4.625
19966,5,1,Jockey,yes,Red,Friend,Lost,2,18,5,Red,Friend_Stranger,21,18,Female,Yes,Yes,3,20,4.625
8093,5,0,Shampoo,yes,Red,Friend,Won,3,18,5,Red,Friend_Stranger,21,18,Female,Yes,Yes,3,20,4.625
7973,5,0,Trunk,yes,Red,Friend,Won,4,18,5,Red,Friend_Stranger,21,18,Female,Yes,Yes,3,20,4.625
15749,5,1,Vote,yes,Red,Friend,Lost,5,18,5,Red,Friend_Stranger,21,18,Female,Yes,Yes,3,20,4.625
3999,5,1,Trolley Car,yes,Red,Friend,Lost,6,18,5,Red,Friend_Stranger,21,18,Female,Yes,Yes,3,20,4.625
5410,5,0,Tuxedo,yes,Red,Friend,Won,7,18,5,Red,Friend_Stranger,21,18,Female,Yes,Yes,3,20,4.625
21323,5,0,Snore,yes,Red,Friend,Won,8,18,5,Red,Friend_Stranger,21,18,Female,Yes,Yes,3,20,4.625
28417,5,1,Stunt,yes,Red,Friend,Lost,9,18,5,Red,Friend_Stranger,21,18,Female,Yes,Yes,3,20,4.625
19584,5,0,Trophy,yes,Red,Friend,Won,10,18,5,Red,Friend_Stranger,21,18,Female,Yes,Yes,3,20,4.625
17742,5,0,Simple,yes,Red,Friend,Won,11,18,5,Red,Friend_Stranger,21,18,Female,Yes,Yes,3,20,4.625
10658,5,0,Waiter,yes,Red,Friend,Won,12,18,5,Red,Friend_Stranger,21,18,Female,Yes,Yes,3,20,4.625
22352,5,1,Strategy,yes,Red,Friend,Lost,13,18,5,Red,Friend_Stranger,21,18,Female,Yes,Yes,3,20,4.625
20011,5,0,Pose,yes,Red,Friend,Won,14,18,5,Red,Friend_Stranger,21,18,Female,Yes,Yes,3,20,4.625
13305,5,0,Twins,yes,Red,Friend,Won,15,18,5,Red,Friend_Stranger,21,18,Female,Yes,Yes,3,20,4.625
11334,5,0,Peak,yes,Red,Friend,Won,16,18,5,Red,Friend_Stranger,21,18,Female,Yes,Yes,3,20,4.625
8583,5,1,Plumber,yes,Red,Friend,Lost,17,18,5,Red,Friend_Stranger,21,18,Female,Yes,Yes,3,20,4.625
8194,5,0,Tired,yes,Red,Friend,Won,18,18,5,Red,Friend_Stranger,21,18,Female,Yes,Yes,3,20,4.625
12951,5,0,Yawn,yes,Red,Friend,Won,19,18,5,Red,Friend_Stranger,21,18,Female,Yes,Yes,3,20,4.625
4667,5,0,Pen,yes,Red,Friend,Won,20,18,5,Red,Friend_Stranger,21,18,Female,Yes,Yes,3,20,4.625
6835,5,0,Keys,yes,Red,Friend,Won,21,18,5,Red,Friend_Stranger,21,18,Female,Yes,Yes,3,20,4.625
8360,5,0,Marble,yes,Red,Friend,Won,22,18,5,Red,Friend_Stranger,21,18,Female,Yes,Yes,3,20,4.625
20275,5,1,Yesterday,yes,Red,Friend,Lost,23,18,5,Red,Friend_Stranger,21,18,Female,Yes,Yes,3,20,4.625
22984,5,1,Quintuplets,yes,Red,Friend,Lost,24,18,5,Red,Friend_Stranger,21,18,Female,Yes,Yes,3,20,4.625
23196,5,1,Static,yes,Red,Friend,Lost,25,18,5,Red,Friend_Stranger,21,18,Female,Yes,Yes,3,20,4.625
16948,5,1,Sunflower,yes,Red,Friend,Lost,26,18,5,Red,Friend_Stranger,21,18,Female,Yes,Yes,3,20,4.625
7231,5,0,Tweezers,yes,Red,Friend,Won,27,18,5,Red,Friend_Stranger,21,18,Female,Yes,Yes,3,20,4.625
9520,5,1,Watermelon,yes,Red,Friend,Lost,28,18,5,Red,Friend_Stranger,21,18,Female,Yes,Yes,3,20,4.625
9556,5,0,Turkey,yes,Red,Friend,Won,29,18,5,Red,Friend_Stranger,21,18,Female,Yes,Yes,3,20,4.625
13917,5,0,Scarecrow,yes,Red,Friend,Won,30,18,5,Red,Friend_Stranger,21,18,Female,Yes,Yes,3,20,4.625
19382,5,1,Vineyard,yes,Red,Friend,Lost,31,18,5,Red,Friend_Stranger,21,18,Female,Yes,Yes,3,20,4.625
6931,5,0,Mad,yes,Red,Friend,Won,32,18,5,Red,Friend_Stranger,21,18,Female,Yes,Yes,3,20,4.625
4933,5,1,Watch,yes,Red,Friend,Lost,33,18,5,Red,Friend_Stranger,21,18,Female,Yes,Yes,3,20,4.625
4923,5,1,Parsley,yes,Red,Friend,Lost,34,18,5,Red,Friend_Stranger,21,18,Female,Yes,Yes,3,20,4.625
16875,5,1,Stagger,yes,Red,Friend,Lost,35,18,5,Red,Friend_Stranger,21,18,Female,Yes,Yes,3,20,4.625
6891,5,0,Wine,yes,Red,Friend,Won,36,18,5,Red,Friend_Stranger,21,18,Female,Yes,Yes,3,20,4.625
4642,5,0,Sweet,yes,Red,Friend,Won,37,18,5,Red,Friend_Stranger,21,18,Female,Yes,Yes,3,20,4.625
7280,5,0,Teacher,yes,Red,Friend,Won,38,18,5,Red,Friend_Stranger,21,18,Female,Yes,Yes,3,20,4.625
11256,5,1,Wishing Well,yes,Red,Friend,Lost,39,18,5,Red,Friend_Stranger,21,18,Female,Yes,Yes,3,20,4.625
18344,5,1,Surprise,yes,Red,Stranger,Lost,1,18,5,Red,Friend_Stranger,21,18,Female,Yes,Yes,3,17,0
6014,5,1,Hunk,yes,Red,Stranger,Lost,2,18,5,Red,Friend_Stranger,21,18,Female,Yes,Yes,3,17,0
17517,5,0,Welcome,yes,Red,Stranger,Won,3,18,5,Red,Friend_Stranger,21,18,Female,Yes,Yes,3,17,0
23237,5,1,Windmill,yes,Red,Stranger,Lost,4,18,5,Red,Friend_Stranger,21,18,Female,Yes,Yes,3,17,0
8946,5,1,Scoop,yes,Red,Stranger,Lost,5,18,5,Red,Friend_Stranger,21,18,Female,Yes,Yes,3,17,0
10581,5,0,Snowflake,yes,Red,Stranger,Won,6,18,5,Red,Friend_Stranger,21,18,Female,Yes,Yes,3,17,0
13398,5,0,Mirror,yes,Red,Stranger,Won,7,18,5,Red,Friend_Stranger,21,18,Female,Yes,Yes,3,17,0
12312,5,0,Touch,yes,Red,Stranger,Won,8,18,5,Red,Friend_Stranger,21,18,Female,Yes,Yes,3,17,0
14203,5,1,Ransom,yes,Red,Stranger,Lost,9,18,5,Red,Friend_Stranger,21,18,Female,Yes,Yes,3,17,0
4311,5,0,Salt,yes,Red,Stranger,Won,10,18,5,Red,Friend_Stranger,21,18,Female,Yes,Yes,3,17,0
14010,5,0,Sweat,yes,Red,Stranger,Won,11,18,5,Red,Friend_Stranger,21,18,Female,Yes,Yes,3,17,0
10501,5,0,Skateboard,yes,Red,Stranger,Won,12,18,5,Red,Friend_Stranger,21,18,Female,Yes,Yes,3,17,0
10477,5,0,Queen,yes,Red,Stranger,Won,13,18,5,Red,Friend_Stranger,21,18,Female,Yes,Yes,3,17,0
7452,5,0,Wrinkle,yes,Red,Stranger,Won,14,18,5,Red,Friend_Stranger,21,18,Female,Yes,Yes,3,17,0
3671,5,1,Truffle,yes,Red,Stranger,Lost,15,18,5,Red,Friend_Stranger,21,18,Female,Yes,Yes,3,17,0
11343,5,0,Knife,yes,Red,Stranger,Won,16,18,5,Red,Friend_Stranger,21,18,Female,Yes,Yes,3,17,0
8509,5,1,Tent,yes,Red,Stranger,Lost,17,18,5,Red,Friend_Stranger,21,18,Female,Yes,Yes,3,17,0
8169,5,1,Pool,yes,Red,Stranger,Lost,18,18,5,Red,Friend_Stranger,21,18,Female,Yes,Yes,3,17,0
20258,5,0,Zebra,yes,Red,Stranger,Won,19,18,5,Red,Friend_Stranger,21,18,Female,Yes,Yes,3,17,0
5350,5,0,Snowman,yes,Red,Stranger,Won,20,18,5,Red,Friend_Stranger,21,18,Female,Yes,Yes,3,17,0
18978,5,1,Vitamin C,yes,Red,Stranger,Lost,21,18,5,Red,Friend_Stranger,21,18,Female,Yes,Yes,3,17,0
23347,5,0,Helmet,yes,Red,Stranger,Won,22,18,5,Red,Friend_Stranger,21,18,Female,Yes,Yes,3,17,0
7589,5,0,Snowboard,yes,Red,Stranger,Won,23,18,5,Red,Friend_Stranger,21,18,Female,Yes,Yes,3,17,0
9054,5,0,Pound,yes,Red,Stranger,Won,24,18,5,Red,Friend_Stranger,21,18,Female,Yes,Yes,3,17,0
12638,5,0,Karaoke,yes,Red,Stranger,Won,25,18,5,Red,Friend_Stranger,21,18,Female,Yes,Yes,3,17,0
6954,5,0,Volcano,yes,Red,Stranger,Won,26,18,5,Red,Friend_Stranger,21,18,Female,Yes,Yes,3,17,0
9456,5,0,Lighthouse,yes,Red,Stranger,Won,27,18,5,Red,Friend_Stranger,21,18,Female,Yes,Yes,3,17,0
11595,5,0,Whisper,yes,Red,Stranger,Won,28,18,5,Red,Friend_Stranger,21,18,Female,Yes,Yes,3,17,0
4303,5,1,Smear,yes,Red,Stranger,Lost,29,18,5,Red,Friend_Stranger,21,18,Female,Yes,Yes,3,17,0
9709,5,0,Tweet,yes,Red,Stranger,Won,30,18,5,Red,Friend_Stranger,21,18,Female,Yes,Yes,3,17,0
6295,5,1,Yo-Yo,yes,Red,Stranger,Lost,31,18,5,Red,Friend_Stranger,21,18,Female,Yes,Yes,3,17,0
6445,5,0,Manicure,yes,Red,Stranger,Won,32,18,5,Red,Friend_Stranger,21,18,Female,Yes,Yes,3,17,0
8286,5,0,Tip,yes,Red,Stranger,Won,33,18,5,Red,Friend_Stranger,21,18,Female,Yes,Yes,3,17,0
7565,5,1,Oatmeal,yes,Red,Stranger,Lost,34,18,5,Red,Friend_Stranger,21,18,Female,Yes,Yes,3,17,0
7849,5,0,Smoke,yes,Red,Stranger,Won,35,18,5,Red,Friend_Stranger,21,18,Female,Yes,Yes,3,17,0
9322,5,0,Sunburn,yes,Red,Stranger,Won,36,18,5,Red,Friend_Stranger,21,18,Female,Yes,Yes,3,17,0
6662,5,0,Violin,yes,Red,Stranger,Won,37,18,5,Red,Friend_Stranger,21,18,Female,Yes,Yes,3,17,0
11466,5,1,Waterfall,yes,Red,Stranger,Lost,38,18,5,Red,Friend_Stranger,21,18,Female,Yes,Yes,3,17,0
8204,5,0,Stars,yes,Red,Stranger,Won,39,18,5,Red,Friend_Stranger,21,18,Female,Yes,Yes,3,17,0
6291,5,1,Theme Park,yes,Red,Stranger,Lost,40,18,5,Red,Friend_Stranger,21,18,Female,Yes,Yes,3,17,0
20131,5,1,Spy,yes,Red,Stranger,Lost,41,18,5,Red,Friend_Stranger,21,18,Female,Yes,Yes,3,17,0
5806,5,0,Shake,yes,Red,Stranger,Won,42,18,5,Red,Friend_Stranger,21,18,Female,Yes,Yes,3,17,0
10083,5,0,Tape,yes,Red,Stranger,Won,43,18,5,Red,Friend_Stranger,21,18,Female,Yes,Yes,3,17,0
4233,5,1,Fudge,yes,Red,Stranger,Lost,44,18,5,Red,Friend_Stranger,21,18,Female,Yes,Yes,3,17,0
5417,5,0,Waffle,yes,Red,Stranger,Won,45,18,5,Red,Friend_Stranger,21,18,Female,Yes,Yes,3,17,0
9515,5,0,Stress,yes,Red,Stranger,Won,46,18,5,Red,Friend_Stranger,21,18,Female,Yes,Yes,3,17,0
9814,5,1,Trigger,yes,Red,Stranger,Lost,47,18,5,Red,Friend_Stranger,21,18,Female,Yes,Yes,3,17,0
8810,5,1,Sword,yes,Red,Stranger,Lost,48,18,5,Red,Friend_Stranger,21,18,Female,Yes,Yes,3,17,0
7338,5,0,Flip Flops,yes,Purple,Friend,Won,1,19,5,Purple,Friend_Stranger,19.5,19,Female,Yes,No,3,17,6
7547,5,0,Buffalo,yes,Purple,Friend,Won,2,19,5,Purple,Friend_Stranger,19.5,19,Female,Yes,No,3,17,6
5354,5,0,Plant,yes,Purple,Friend,Won,3,19,5,Purple,Friend_Stranger,19.5,19,Female,Yes,No,3,17,6
4179,5,0,Negative,yes,Purple,Friend,Won,4,19,5,Purple,Friend_Stranger,19.5,19,Female,Yes,No,3,17,6
4784,5,1,Monster,yes,Purple,Friend,Lost,5,19,5,Purple,Friend_Stranger,19.5,19,Female,Yes,No,3,17,6
13760,5,0,Thirst,yes,Purple,Friend,Won,6,19,5,Purple,Friend_Stranger,19.5,19,Female,Yes,No,3,17,6
,5,,Race Horse,yes,Purple,Friend,Out of time,7,19,5,Purple,Friend_Stranger,19.5,19,Female,Yes,No,3,17,6
10410,5,0,Dummy,yes,Purple,Friend,Won,8,19,5,Purple,Friend_Stranger,19.5,19,Female,Yes,No,3,17,6
5002,5,1,Fumble,yes,Purple,Friend,Lost,9,19,5,Purple,Friend_Stranger,19.5,19,Female,Yes,No,3,17,6
17307,5,1,Pastry,yes,Purple,Friend,Lost,10,19,5,Purple,Friend_Stranger,19.5,19,Female,Yes,No,3,17,6
20666,5,1,Gossip,yes,Purple,Friend,Lost,11,19,5,Purple,Friend_Stranger,19.5,19,Female,Yes,No,3,17,6
15108,5,0,Touchdown,yes,Purple,Friend,Won,12,19,5,Purple,Friend_Stranger,19.5,19,Female,Yes,No,3,17,6
8353,5,0,Shovel,yes,Purple,Friend,Won,13,19,5,Purple,Friend_Stranger,19.5,19,Female,Yes,No,3,17,6
9765,5,1,Ping-Pong,yes,Purple,Friend,Lost,14,19,5,Purple,Friend_Stranger,19.5,19,Female,Yes,No,3,17,6
7073,5,0,Test,yes,Purple,Friend,Won,15,19,5,Purple,Friend_Stranger,19.5,19,Female,Yes,No,3,17,6
11576,5,0,Hug,yes,Purple,Friend,Won,16,19,5,Purple,Friend_Stranger,19.5,19,Female,Yes,No,3,17,6
11175,5,0,Recipe,yes,Purple,Friend,Won,17,19,5,Purple,Friend_Stranger,19.5,19,Female,Yes,No,3,17,6
6916,5,1,Quack,yes,Purple,Friend,Lost,18,19,5,Purple,Friend_Stranger,19.5,19,Female,Yes,No,3,17,6
9200,5,0,Navy,yes,Purple,Friend,Won,19,19,5,Purple,Friend_Stranger,19.5,19,Female,Yes,No,3,17,6
3146,5,0,Dance,yes,Purple,Friend,Won,20,19,5,Purple,Friend_Stranger,19.5,19,Female,Yes,No,3,17,6
3816,5,0,Mountain,yes,Purple,Friend,Won,21,19,5,Purple,Friend_Stranger,19.5,19,Female,Yes,No,3,17,6
12026,5,0,Mattress,yes,Purple,Friend,Won,22,19,5,Purple,Friend_Stranger,19.5,19,Female,Yes,No,3,17,6
7865,5,0,Purple,yes,Purple,Friend,Won,23,19,5,Purple,Friend_Stranger,19.5,19,Female,Yes,No,3,17,6
8616,5,0,Intelligent,yes,Purple,Friend,Won,24,19,5,Purple,Friend_Stranger,19.5,19,Female,Yes,No,3,17,6
19926,5,1,Panda,yes,Purple,Friend,Lost,25,19,5,Purple,Friend_Stranger,19.5,19,Female,Yes,No,3,17,6
8802,5,0,Kangaroo,yes,Purple,Friend,Won,26,19,5,Purple,Friend_Stranger,19.5,19,Female,Yes,No,3,17,6
12896,5,0,Fireplace,yes,Purple,Friend,Won,27,19,5,Purple,Friend_Stranger,19.5,19,Female,Yes,No,3,17,6
8504,5,0,Teddy Bear,yes,Purple,Friend,Won,28,19,5,Purple,Friend_Stranger,19.5,19,Female,Yes,No,3,17,6
10542,5,1,Oyster,yes,Purple,Friend,Lost,29,19,5,Purple,Friend_Stranger,19.5,19,Female,Yes,No,3,17,6
15796,5,0,Hiking,yes,Purple,Friend,Won,30,19,5,Purple,Friend_Stranger,19.5,19,Female,Yes,No,3,17,6
7635,5,0,Lake,yes,Purple,Friend,Won,31,19,5,Purple,Friend_Stranger,19.5,19,Female,Yes,No,3,17,6
12389,5,0,Graduation,yes,Purple,Friend,Won,32,19,5,Purple,Friend_Stranger,19.5,19,Female,Yes,No,3,17,6
14036,5,0,Jury,yes,Purple,Friend,Won,33,19,5,Purple,Friend_Stranger,19.5,19,Female,Yes,No,3,17,6
4414,5,1,Tightrope,yes,Purple,Friend,Lost,34,19,5,Purple,Friend_Stranger,19.5,19,Female,Yes,No,3,17,6
8948,5,1,Grape,yes,Purple,Friend,Lost,35,19,5,Purple,Friend_Stranger,19.5,19,Female,Yes,No,3,17,6
14580,5,0,Temperature,yes,Purple,Friend,Won,36,19,5,Purple,Friend_Stranger,19.5,19,Female,Yes,No,3,17,6
7085,5,1,Prom,yes,Purple,Friend,Lost,37,19,5,Purple,Friend_Stranger,19.5,19,Female,Yes,No,3,17,6
16997,5,0,Sushi,yes,Purple,Friend,Won,38,19,5,Purple,Friend_Stranger,19.5,19,Female,Yes,No,3,17,6
8277,5,1,Path,yes,Purple,Friend,Lost,39,19,5,Purple,Friend_Stranger,19.5,19,Female,Yes,No,3,17,6
4702,5,0,Mistletoe,yes,Purple,Friend,Won,40,19,5,Purple,Friend_Stranger,19.5,19,Female,Yes,No,3,17,6
8055,5,0,Mistake,yes,Purple,Friend,Won,41,19,5,Purple,Friend_Stranger,19.5,19,Female,Yes,No,3,17,6
7326,5,0,Scientist,yes,Purple,Friend,Won,42,19,5,Purple,Friend_Stranger,19.5,19,Female,Yes,No,3,17,6
8326,5,0,Job,yes,Purple,Friend,Won,43,19,5,Purple,Friend_Stranger,19.5,19,Female,Yes,No,3,17,6
12418,5,0,Snooze,yes,Purple,Friend,Won,44,19,5,Purple,Friend_Stranger,19.5,19,Female,Yes,No,3,17,6
27509,5,1,Survive,yes,Purple,Friend,Lost,45,19,5,Purple,Friend_Stranger,19.5,19,Female,Yes,No,3,17,6
18441,5,0,Finger,yes,Purple,Friend,Won,46,19,5,Purple,Friend_Stranger,19.5,19,Female,Yes,No,3,17,6
11718,5,1,Studio,yes,Purple,Friend,Lost,47,19,5,Purple,Friend_Stranger,19.5,19,Female,Yes,No,3,17,6
11935,5,0,Gingerbread,yes,Purple,Stranger,Won,1,19,5,Purple,Friend_Stranger,19.5,19,Female,Yes,No,3,20,0
13696,5,0,Raisin,yes,Purple,Stranger,Won,2,19,5,Purple,Friend_Stranger,19.5,19,Female,Yes,No,3,20,0
6524,5,0,Silk,yes,Purple,Stranger,Won,3,19,5,Purple,Friend_Stranger,19.5,19,Female,Yes,No,3,20,0
11532,5,1,Sizzle,yes,Purple,Stranger,Lost,4,19,5,Purple,Friend_Stranger,19.5,19,Female,Yes,No,3,20,0
12522,5,0,Note,yes,Purple,Stranger,Won,5,19,5,Purple,Friend_Stranger,19.5,19,Female,Yes,No,3,20,0
10692,5,1,Lasagna,yes,Purple,Stranger,Lost,6,19,5,Purple,Friend_Stranger,19.5,19,Female,Yes,No,3,20,0
10099,5,0,Pizza,yes,Purple,Stranger,Won,7,19,5,Purple,Friend_Stranger,19.5,19,Female,Yes,No,3,20,0
6834,5,0,Mud,yes,Purple,Stranger,Won,8,19,5,Purple,Friend_Stranger,19.5,19,Female,Yes,No,3,20,0
12920,5,0,Rain Forest,yes,Purple,Stranger,Won,9,19,5,Purple,Friend_Stranger,19.5,19,Female,Yes,No,3,20,0
14396,5,0,Mascara,yes,Purple,Stranger,Won,10,19,5,Purple,Friend_Stranger,19.5,19,Female,Yes,No,3,20,0
13776,5,1,Paycheck,yes,Purple,Stranger,Lost,11,19,5,Purple,Friend_Stranger,19.5,19,Female,Yes,No,3,20,0
21651,5,1,Fog,yes,Purple,Stranger,Lost,12,19,5,Purple,Friend_Stranger,19.5,19,Female,Yes,No,3,20,0
7683,5,1,Question Mark,yes,Purple,Stranger,Lost,13,19,5,Purple,Friend_Stranger,19.5,19,Female,Yes,No,3,20,0
13768,5,1,Rainbow,yes,Purple,Stranger,Lost,14,19,5,Purple,Friend_Stranger,19.5,19,Female,Yes,No,3,20,0
5753,5,1,Turnover,yes,Purple,Stranger,Lost,15,19,5,Purple,Friend_Stranger,19.5,19,Female,Yes,No,3,20,0
8353,5,1,Lottery,yes,Purple,Stranger,Lost,16,19,5,Purple,Friend_Stranger,19.5,19,Female,Yes,No,3,20,0
10442,5,0,Jail,yes,Purple,Stranger,Won,17,19,5,Purple,Friend_Stranger,19.5,19,Female,Yes,No,3,20,0
29847,5,1,Puke,yes,Purple,Stranger,Lost,18,19,5,Purple,Friend_Stranger,19.5,19,Female,Yes,No,3,20,0
6951,5,0,Jogging,yes,Purple,Stranger,Won,19,19,5,Purple,Friend_Stranger,19.5,19,Female,Yes,No,3,20,0
6684,5,0,Lemon,yes,Purple,Stranger,Won,20,19,5,Purple,Friend_Stranger,19.5,19,Female,Yes,No,3,20,0
4076,5,1,Tavern,yes,Purple,Stranger,Lost,21,19,5,Purple,Friend_Stranger,19.5,19,Female,Yes,No,3,20,0
9984,5,1,Nail,yes,Purple,Stranger,Lost,22,19,5,Purple,Friend_Stranger,19.5,19,Female,Yes,No,3,20,0
11174,5,0,Toll,yes,Purple,Stranger,Won,23,19,5,Purple,Friend_Stranger,19.5,19,Female,Yes,No,3,20,0
25601,5,0,Puppy,yes,Purple,Stranger,Won,24,19,5,Purple,Friend_Stranger,19.5,19,Female,Yes,No,3,20,0
8946,5,0,Leftovers,yes,Purple,Stranger,Won,25,19,5,Purple,Friend_Stranger,19.5,19,Female,Yes,No,3,20,0
3418,5,0,Pedicure,yes,Purple,Stranger,Won,26,19,5,Purple,Friend_Stranger,19.5,19,Female,Yes,No,3,20,0
7009,5,0,Tickle,yes,Purple,Stranger,Won,27,19,5,Purple,Friend_Stranger,19.5,19,Female,Yes,No,3,20,0
9166,5,0,Underdog,yes,Purple,Stranger,Won,28,19,5,Purple,Friend_Stranger,19.5,19,Female,Yes,No,3,20,0
5511,5,0,Rock,yes,Purple,Stranger,Won,29,19,5,Purple,Friend_Stranger,19.5,19,Female,Yes,No,3,20,0
10372,5,0,Stew,yes,Purple,Stranger,Won,30,19,5,Purple,Friend_Stranger,19.5,19,Female,Yes,No,3,20,0
6349,5,0,Fly,yes,Purple,Stranger,Won,31,19,5,Purple,Friend_Stranger,19.5,19,Female,Yes,No,3,20,0
7051,5,0,Sulk,yes,Purple,Stranger,Won,32,19,5,Purple,Friend_Stranger,19.5,19,Female,Yes,No,3,20,0
11921,5,1,In-Law,yes,Purple,Stranger,Lost,33,19,5,Purple,Friend_Stranger,19.5,19,Female,Yes,No,3,20,0
18780,5,1,Skyline,yes,Purple,Stranger,Lost,34,19,5,Purple,Friend_Stranger,19.5,19,Female,Yes,No,3,20,0
13166,5,0,Skunk,yes,Purple,Stranger,Won,35,19,5,Purple,Friend_Stranger,19.5,19,Female,Yes,No,3,20,0
10682,5,0,Pigeon,yes,Purple,Stranger,Won,36,19,5,Purple,Friend_Stranger,19.5,19,Female,Yes,No,3,20,0
6451,5,0,Picnic,yes,Purple,Stranger,Won,37,19,5,Purple,Friend_Stranger,19.5,19,Female,Yes,No,3,20,0
15094,5,1,Ivory,yes,Purple,Stranger,Lost,38,19,5,Purple,Friend_Stranger,19.5,19,Female,Yes,No,3,20,0
20679,5,1,Scorpion,yes,Purple,Stranger,Lost,39,19,5,Purple,Friend_Stranger,19.5,19,Female,Yes,No,3,20,0
13633,5,0,Saddle,yes,Purple,Stranger,Won,40,19,5,Purple,Friend_Stranger,19.5,19,Female,Yes,No,3,20,0
4593,5,1,Luau,yes,Purple,Stranger,Lost,41,19,5,Purple,Friend_Stranger,19.5,19,Female,Yes,No,3,20,0
6736,5,0,Surgery,yes,Purple,Stranger,Won,42,19,5,Purple,Friend_Stranger,19.5,19,Female,Yes,No,3,20,0
4018,5,0,Slow,yes,Purple,Stranger,Won,43,19,5,Purple,Friend_Stranger,19.5,19,Female,Yes,No,3,20,0
7693,5,0,Boss,yes,Purple,Stranger,Won,44,19,5,Purple,Friend_Stranger,19.5,19,Female,Yes,No,3,20,0
9739,5,0,Mouse,yes,Purple,Stranger,Won,45,19,5,Purple,Friend_Stranger,19.5,19,Female,Yes,No,3,20,0
7276,5,0,Point,yes,Purple,Stranger,Won,46,19,5,Purple,Friend_Stranger,19.5,19,Female,Yes,No,3,20,0
4647,5,1,Panic,yes,Purple,Stranger,Lost,47,19,5,Purple,Friend_Stranger,19.5,19,Female,Yes,No,3,20,0
7676,5,0,Parrot,yes,Yellow,Friend,Won,1,20,5,Yellow,Friend_Stranger,20.5,20,Female,Yes,Yes,4,18,3.125
4402,5,1,Heist,yes,Yellow,Friend,Lost,2,20,5,Yellow,Friend_Stranger,20.5,20,Female,Yes,Yes,4,18,3.125
8090,5,0,Belly Button,yes,Yellow,Friend,Won,3,20,5,Yellow,Friend_Stranger,20.5,20,Female,Yes,Yes,4,18,3.125
23282,5,0,Rug,yes,Yellow,Friend,Won,4,20,5,Yellow,Friend_Stranger,20.5,20,Female,Yes,Yes,4,18,3.125
8578,5,0,Fan,yes,Yellow,Friend,Won,5,20,5,Yellow,Friend_Stranger,20.5,20,Female,Yes,Yes,4,18,3.125
28486,5,1,Ghost,yes,Yellow,Friend,Lost,6,20,5,Yellow,Friend_Stranger,20.5,20,Female,Yes,Yes,4,18,3.125
9572,5,0,Curfew,yes,Yellow,Friend,Won,7,20,5,Yellow,Friend_Stranger,20.5,20,Female,Yes,Yes,4,18,3.125
13917,5,0,Artist,yes,Yellow,Friend,Won,8,20,5,Yellow,Friend_Stranger,20.5,20,Female,Yes,Yes,4,18,3.125
23280,5,1,Crab,yes,Yellow,Friend,Lost,9,20,5,Yellow,Friend_Stranger,20.5,20,Female,Yes,Yes,4,18,3.125
12470,5,0,Honey,yes,Yellow,Friend,Won,10,20,5,Yellow,Friend_Stranger,20.5,20,Female,Yes,Yes,4,18,3.125
16641,5,1,Nutcracker,yes,Yellow,Friend,Lost,11,20,5,Yellow,Friend_Stranger,20.5,20,Female,Yes,Yes,4,18,3.125
8122,5,0,Band,yes,Yellow,Friend,Won,12,20,5,Yellow,Friend_Stranger,20.5,20,Female,Yes,Yes,4,18,3.125
19289,5,0,Garlic,yes,Yellow,Friend,Won,13,20,5,Yellow,Friend_Stranger,20.5,20,Female,Yes,Yes,4,18,3.125
8018,5,0,Paint,yes,Yellow,Friend,Won,14,20,5,Yellow,Friend_Stranger,20.5,20,Female,Yes,Yes,4,18,3.125
27145,5,1,Honesty,yes,Yellow,Friend,Lost,15,20,5,Yellow,Friend_Stranger,20.5,20,Female,Yes,Yes,4,18,3.125
17407,5,0,Sauna,yes,Yellow,Friend,Won,16,20,5,Yellow,Friend_Stranger,20.5,20,Female,Yes,Yes,4,18,3.125
14217,5,1,Garage,yes,Yellow,Friend,Lost,17,20,5,Yellow,Friend_Stranger,20.5,20,Female,Yes,Yes,4,18,3.125
25193,5,1,Coincidence,yes,Yellow,Friend,Lost,18,20,5,Yellow,Friend_Stranger,20.5,20,Female,Yes,Yes,4,18,3.125
29193,5,1,Snob,yes,Yellow,Friend,Lost,19,20,5,Yellow,Friend_Stranger,20.5,20,Female,Yes,Yes,4,18,3.125
17901,5,0,Know,yes,Yellow,Friend,Won,20,20,5,Yellow,Friend_Stranger,20.5,20,Female,Yes,Yes,4,18,3.125
13291,5,0,Kite,yes,Yellow,Friend,Won,21,20,5,Yellow,Friend_Stranger,20.5,20,Female,Yes,Yes,4,18,3.125
9809,5,0,Fall,yes,Yellow,Friend,Won,22,20,5,Yellow,Friend_Stranger,20.5,20,Female,Yes,Yes,4,18,3.125
11141,5,0,Doll,yes,Yellow,Friend,Won,23,20,5,Yellow,Friend_Stranger,20.5,20,Female,Yes,Yes,4,18,3.125
18987,5,1,Feather,yes,Yellow,Friend,Lost,24,20,5,Yellow,Friend_Stranger,20.5,20,Female,Yes,Yes,4,18,3.125
8718,5,0,Tunnel,yes,Yellow,Friend,Won,25,20,5,Yellow,Friend_Stranger,20.5,20,Female,Yes,Yes,4,18,3.125
18335,5,1,Fajita,yes,Yellow,Friend,Lost,26,20,5,Yellow,Friend_Stranger,20.5,20,Female,Yes,Yes,4,18,3.125
5241,5,0,Milk,yes,Yellow,Friend,Won,27,20,5,Yellow,Friend_Stranger,20.5,20,Female,Yes,Yes,4,18,3.125
12244,5,0,Shuffle,yes,Yellow,Friend,Won,28,20,5,Yellow,Friend_Stranger,20.5,20,Female,Yes,Yes,4,18,3.125
8224,5,0,Park,yes,Yellow,Friend,Won,29,20,5,Yellow,Friend_Stranger,20.5,20,Female,Yes,Yes,4,18,3.125
11192,5,0,Customer,yes,Yellow,Friend,Won,30,20,5,Yellow,Friend_Stranger,20.5,20,Female,Yes,Yes,4,18,3.125
19432,5,1,Butterfly,yes,Yellow,Friend,Lost,31,20,5,Yellow,Friend_Stranger,20.5,20,Female,Yes,Yes,4,18,3.125
12636,5,0,Bubble Gum,yes,Yellow,Friend,Won,32,20,5,Yellow,Friend_Stranger,20.5,20,Female,Yes,Yes,4,18,3.125
8104,5,0,Earth,yes,Yellow,Friend,Won,33,20,5,Yellow,Friend_Stranger,20.5,20,Female,Yes,Yes,4,18,3.125
13109,5,0,Crash,yes,Yellow,Friend,Won,34,20,5,Yellow,Friend_Stranger,20.5,20,Female,Yes,Yes,4,18,3.125
5593,5,1,Float,yes,Yellow,Friend,Lost,35,20,5,Yellow,Friend_Stranger,20.5,20,Female,Yes,Yes,4,18,3.125
20491,5,0,Dimples,yes,Yellow,Stranger,Won,1,20,5,Yellow,Friend_Stranger,20.5,20,Female,Yes,Yes,4,19,0
24064,5,1,Swamp,yes,Yellow,Stranger,Lost,2,20,5,Yellow,Friend_Stranger,20.5,20,Female,Yes,Yes,4,19,0
10119,5,0,Chopsticks,yes,Yellow,Stranger,Won,3,20,5,Yellow,Friend_Stranger,20.5,20,Female,Yes,Yes,4,19,0
11453,5,0,Cream,yes,Yellow,Stranger,Won,4,20,5,Yellow,Friend_Stranger,20.5,20,Female,Yes,Yes,4,19,0
,5,,Jackpot,yes,Yellow,Stranger,Out of time,5,20,5,Yellow,Friend_Stranger,20.5,20,Female,Yes,Yes,4,19,0
28815,5,1,Pretzel,yes,Yellow,Stranger,Lost,6,20,5,Yellow,Friend_Stranger,20.5,20,Female,Yes,Yes,4,19,0
,5,,Canoe,yes,Yellow,Stranger,Out of time,7,20,5,Yellow,Friend_Stranger,20.5,20,Female,Yes,Yes,4,19,0
12549,5,0,Journey,yes,Yellow,Stranger,Won,8,20,5,Yellow,Friend_Stranger,20.5,20,Female,Yes,Yes,4,19,0
8572,5,0,Heart,yes,Yellow,Stranger,Won,9,20,5,Yellow,Friend_Stranger,20.5,20,Female,Yes,Yes,4,19,0
13168,5,0,Scale,yes,Yellow,Stranger,Won,10,20,5,Yellow,Friend_Stranger,20.5,20,Female,Yes,Yes,4,19,0
14793,5,0,Lunch,yes,Yellow,Stranger,Won,11,20,5,Yellow,Friend_Stranger,20.5,20,Female,Yes,Yes,4,19,0
16268,5,0,Forest,yes,Yellow,Stranger,Won,12,20,5,Yellow,Friend_Stranger,20.5,20,Female,Yes,Yes,4,19,0
21730,5,0,Desert,yes,Yellow,Stranger,Won,13,20,5,Yellow,Friend_Stranger,20.5,20,Female,Yes,Yes,4,19,0
7023,5,1,Deck,yes,Yellow,Stranger,Lost,14,20,5,Yellow,Friend_Stranger,20.5,20,Female,Yes,Yes,4,19,0
12253,5,0,Cupcake,yes,Yellow,Stranger,Won,15,20,5,Yellow,Friend_Stranger,20.5,20,Female,Yes,Yes,4,19,0
12039,5,1,Moon,yes,Yellow,Stranger,Lost,16,20,5,Yellow,Friend_Stranger,20.5,20,Female,Yes,Yes,4,19,0
24022,5,1,Explode,yes,Yellow,Stranger,Lost,17,20,5,Yellow,Friend_Stranger,20.5,20,Female,Yes,Yes,4,19,0
13905,5,1,Bulb,yes,Yellow,Stranger,Lost,18,20,5,Yellow,Friend_Stranger,20.5,20,Female,Yes,Yes,4,19,0
5902,5,0,Brandy,yes,Yellow,Stranger,Won,19,20,5,Yellow,Friend_Stranger,20.5,20,Female,Yes,Yes,4,19,0
7764,5,0,Organic,yes,Yellow,Stranger,Won,20,20,5,Yellow,Friend_Stranger,20.5,20,Female,Yes,Yes,4,19,0
19159,5,1,Decipher,yes,Yellow,Stranger,Lost,21,20,5,Yellow,Friend_Stranger,20.5,20,Female,Yes,Yes,4,19,0
23264,5,0,Ancient,yes,Yellow,Stranger,Won,22,20,5,Yellow,Friend_Stranger,20.5,20,Female,Yes,Yes,4,19,0
6016,5,1,Hypnosis,yes,Yellow,Stranger,Lost,23,20,5,Yellow,Friend_Stranger,20.5,20,Female,Yes,Yes,4,19,0
14680,5,0,Infinity,yes,Yellow,Stranger,Won,24,20,5,Yellow,Friend_Stranger,20.5,20,Female,Yes,Yes,4,19,0
6648,5,0,Circle,yes,Yellow,Stranger,Won,25,20,5,Yellow,Friend_Stranger,20.5,20,Female,Yes,Yes,4,19,0
8631,5,0,Nest,yes,Yellow,Stranger,Won,26,20,5,Yellow,Friend_Stranger,20.5,20,Female,Yes,Yes,4,19,0
12244,5,0,Map,yes,Yellow,Stranger,Won,27,20,5,Yellow,Friend_Stranger,20.5,20,Female,Yes,Yes,4,19,0
9651,5,0,Field,yes,Yellow,Stranger,Won,28,20,5,Yellow,Friend_Stranger,20.5,20,Female,Yes,Yes,4,19,0
18901,5,1,Cobweb,yes,Yellow,Stranger,Lost,29,20,5,Yellow,Friend_Stranger,20.5,20,Female,Yes,Yes,4,19,0
9577,5,0,Lipstick,yes,Yellow,Stranger,Won,30,20,5,Yellow,Friend_Stranger,20.5,20,Female,Yes,Yes,4,19,0
23610,5,1,Rhyme,yes,Yellow,Stranger,Lost,31,20,5,Yellow,Friend_Stranger,20.5,20,Female,Yes,Yes,4,19,0
11523,5,0,Reindeer,yes,Yellow,Stranger,Won,32,20,5,Yellow,Friend_Stranger,20.5,20,Female,Yes,Yes,4,19,0
9023,5,1,Lizard,yes,Yellow,Stranger,Lost,33,20,5,Yellow,Friend_Stranger,20.5,20,Female,Yes,Yes,4,19,0
23843,6,0,Flashlight,yes,Blue,Stranger,Won,1,21,6,Blue,Stranger_Friend,20,21,Male,Yes,No,1,23,0
,6,,Hose,yes,Blue,Stranger,Out of time,2,21,6,Blue,Stranger_Friend,20,21,Male,Yes,No,1,23,0
,6,,Gasp,yes,Blue,Stranger,Out of time,3,21,6,Blue,Stranger_Friend,20,21,Male,Yes,No,1,23,0
,6,,Bacon,yes,Blue,Stranger,Out of time,4,21,6,Blue,Stranger_Friend,20,21,Male,Yes,No,1,23,0
,6,,Polar Bear,yes,Blue,Stranger,Out of time,5,21,6,Blue,Stranger_Friend,20,21,Male,Yes,No,1,23,0
8650,6,1,Guess,yes,Blue,Stranger,Lost,6,21,6,Blue,Stranger_Friend,20,21,Male,Yes,No,1,23,0
8687,6,0,Basement,yes,Blue,Stranger,Won,7,21,6,Blue,Stranger_Friend,20,21,Male,Yes,No,1,23,0
12068,6,1,Bunny,yes,Blue,Stranger,Lost,8,21,6,Blue,Stranger_Friend,20,21,Male,Yes,No,1,23,0
11668,6,0,Cherry,yes,Blue,Stranger,Won,9,21,6,Blue,Stranger_Friend,20,21,Male,Yes,No,1,23,0
6553,6,0,Doctor,yes,Blue,Stranger,Won,10,21,6,Blue,Stranger_Friend,20,21,Male,Yes,No,1,23,0
12407,6,1,Drive,yes,Blue,Stranger,Lost,11,21,6,Blue,Stranger_Friend,20,21,Male,Yes,No,1,23,0
9586,6,0,Cheer,yes,Blue,Stranger,Won,12,21,6,Blue,Stranger_Friend,20,21,Male,Yes,No,1,23,0
16521,6,0,Blast,yes,Blue,Stranger,Won,13,21,6,Blue,Stranger_Friend,20,21,Male,Yes,No,1,23,0
13891,6,0,Champagne,yes,Blue,Stranger,Won,14,21,6,Blue,Stranger_Friend,20,21,Male,Yes,No,1,23,0
9180,6,0,Camp,yes,Blue,Stranger,Won,15,21,6,Blue,Stranger_Friend,20,21,Male,Yes,No,1,23,0
9597,6,1,Ladybug,yes,Blue,Stranger,Lost,16,21,6,Blue,Stranger_Friend,20,21,Male,Yes,No,1,23,0
7337,6,1,Antique,yes,Blue,Stranger,Lost,17,21,6,Blue,Stranger_Friend,20,21,Male,Yes,No,1,23,0
10547,6,0,Backpack,yes,Blue,Stranger,Won,18,21,6,Blue,Stranger_Friend,20,21,Male,Yes,No,1,23,0
8550,6,1,Bartender,yes,Blue,Stranger,Lost,19,21,6,Blue,Stranger_Friend,20,21,Male,Yes,No,1,23,0
14941,6,0,Cologne,yes,Blue,Stranger,Won,20,21,6,Blue,Stranger_Friend,20,21,Male,Yes,No,1,23,0
21997,6,1,Army,yes,Blue,Stranger,Lost,21,21,6,Blue,Stranger_Friend,20,21,Male,Yes,No,1,23,0
27896,6,1,Aspirin,yes,Blue,Stranger,Lost,22,21,6,Blue,Stranger_Friend,20,21,Male,Yes,No,1,23,0
7864,6,1,Flames,yes,Blue,Stranger,Lost,23,21,6,Blue,Stranger_Friend,20,21,Male,Yes,No,1,23,0
3535,6,1,Freshen,yes,Blue,Stranger,Lost,24,21,6,Blue,Stranger_Friend,20,21,Male,Yes,No,1,23,0
16274,6,0,Daydream,yes,Blue,Stranger,Won,25,21,6,Blue,Stranger_Friend,20,21,Male,Yes,No,1,23,0
14523,6,1,Oil,yes,Blue,Stranger,Lost,26,21,6,Blue,Stranger_Friend,20,21,Male,Yes,No,1,23,0
11057,6,1,Downtown,yes,Blue,Stranger,Lost,27,21,6,Blue,Stranger_Friend,20,21,Male,Yes,No,1,23,0
14885,6,0,Bath,yes,Blue,Stranger,Won,28,21,6,Blue,Stranger_Friend,20,21,Male,Yes,No,1,23,0
16030,6,0,Cheat,yes,Blue,Stranger,Won,29,21,6,Blue,Stranger_Friend,20,21,Male,Yes,No,1,23,0
16708,6,0,Chocolate,yes,Blue,Stranger,Won,30,21,6,Blue,Stranger_Friend,20,21,Male,Yes,No,1,23,0
14455,6,1,Dead End,yes,Blue,Stranger,Lost,31,21,6,Blue,Stranger_Friend,20,21,Male,Yes,No,1,23,0
5528,6,1,Acne,yes,Blue,Stranger,Lost,32,21,6,Blue,Stranger_Friend,20,21,Male,Yes,No,1,23,0
5908,6,1,Batter,yes,Blue,Stranger,Lost,33,21,6,Blue,Stranger_Friend,20,21,Male,Yes,No,1,23,0
8611,6,1,Bikini,yes,Blue,Stranger,Lost,34,21,6,Blue,Stranger_Friend,20,21,Male,Yes,No,1,23,0
8424,6,0,Bag,yes,Blue,Stranger,Won,35,21,6,Blue,Stranger_Friend,20,21,Male,Yes,No,1,23,0
11885,6,0,Book,yes,Blue,Stranger,Won,36,21,6,Blue,Stranger_Friend,20,21,Male,Yes,No,1,23,0
11630,6,1,Lifeguard,yes,Blue,Stranger,Lost,37,21,6,Blue,Stranger_Friend,20,21,Male,Yes,No,1,23,0
17685,6,0,Blister,yes,Blue,Friend,Won,1,21,6,Blue,Stranger_Friend,20,21,Male,Yes,No,1,22,4.375
13771,6,1,Dust,yes,Blue,Friend,Lost,2,21,6,Blue,Stranger_Friend,20,21,Male,Yes,No,1,22,4.375
10320,6,0,Gallon,yes,Blue,Friend,Won,3,21,6,Blue,Stranger_Friend,20,21,Male,Yes,No,1,22,4.375
13755,6,0,Crutches,yes,Blue,Friend,Won,4,21,6,Blue,Stranger_Friend,20,21,Male,Yes,No,1,22,4.375
10159,6,0,Battery,yes,Blue,Friend,Won,5,21,6,Blue,Stranger_Friend,20,21,Male,Yes,No,1,22,4.375
7069,6,0,Career,yes,Blue,Friend,Won,6,21,6,Blue,Stranger_Friend,20,21,Male,Yes,No,1,22,4.375
18000,6,0,Design,yes,Blue,Friend,Won,7,21,6,Blue,Stranger_Friend,20,21,Male,Yes,No,1,22,4.375
5977,6,1,Bonfire,yes,Blue,Friend,Lost,8,21,6,Blue,Stranger_Friend,20,21,Male,Yes,No,1,22,4.375
13530,6,1,Extreme,yes,Blue,Friend,Lost,9,21,6,Blue,Stranger_Friend,20,21,Male,Yes,No,1,22,4.375
13827,6,1,Pitch,yes,Blue,Friend,Lost,10,21,6,Blue,Stranger_Friend,20,21,Male,Yes,No,1,22,4.375
8027,6,0,Brain,yes,Blue,Friend,Won,11,21,6,Blue,Stranger_Friend,20,21,Male,Yes,No,1,22,4.375
2355,6,1,Bayou,yes,Blue,Friend,Lost,12,21,6,Blue,Stranger_Friend,20,21,Male,Yes,No,1,22,4.375
10192,6,0,Beach,yes,Blue,Friend,Won,13,21,6,Blue,Stranger_Friend,20,21,Male,Yes,No,1,22,4.375
8062,6,0,Balloon,yes,Blue,Friend,Won,14,21,6,Blue,Stranger_Friend,20,21,Male,Yes,No,1,22,4.375
15366,6,1,Boomerang,yes,Blue,Friend,Lost,15,21,6,Blue,Stranger_Friend,20,21,Male,Yes,No,1,22,4.375
23123,6,1,Cowboy,yes,Blue,Friend,Lost,16,21,6,Blue,Stranger_Friend,20,21,Male,Yes,No,1,22,4.375
21143,6,1,Barn,yes,Blue,Friend,Lost,17,21,6,Blue,Stranger_Friend,20,21,Male,Yes,No,1,22,4.375
10735,6,0,Farm,yes,Blue,Friend,Won,18,21,6,Blue,Stranger_Friend,20,21,Male,Yes,No,1,22,4.375
13869,6,0,Handcuffs,yes,Blue,Friend,Won,19,21,6,Blue,Stranger_Friend,20,21,Male,Yes,No,1,22,4.375
3587,6,1,Amnesia,yes,Blue,Friend,Lost,20,21,6,Blue,Stranger_Friend,20,21,Male,Yes,No,1,22,4.375
7140,6,1,Breeze,yes,Blue,Friend,Lost,21,21,6,Blue,Stranger_Friend,20,21,Male,Yes,No,1,22,4.375
16155,6,0,Appendix,yes,Blue,Friend,Won,22,21,6,Blue,Stranger_Friend,20,21,Male,Yes,No,1,22,4.375
9859,6,0,Angel,yes,Blue,Friend,Won,23,21,6,Blue,Stranger_Friend,20,21,Male,Yes,No,1,22,4.375
17319,6,0,Immortal,yes,Blue,Friend,Won,24,21,6,Blue,Stranger_Friend,20,21,Male,Yes,No,1,22,4.375
5056,6,0,Mansion,yes,Blue,Friend,Won,25,21,6,Blue,Stranger_Friend,20,21,Male,Yes,No,1,22,4.375
,6,,Cockroach,yes,Blue,Friend,Out of time,26,21,6,Blue,Stranger_Friend,20,21,Male,Yes,No,1,22,4.375
3544,6,1,Beret,yes,Blue,Friend,Lost,27,21,6,Blue,Stranger_Friend,20,21,Male,Yes,No,1,22,4.375
10456,6,0,Grease,yes,Blue,Friend,Won,28,21,6,Blue,Stranger_Friend,20,21,Male,Yes,No,1,22,4.375
16384,6,0,Chef,yes,Blue,Friend,Won,29,21,6,Blue,Stranger_Friend,20,21,Male,Yes,No,1,22,4.375
6418,6,1,Boardwalk,yes,Blue,Friend,Lost,30,21,6,Blue,Stranger_Friend,20,21,Male,Yes,No,1,22,4.375
8079,6,1,Bait,yes,Blue,Friend,Lost,31,21,6,Blue,Stranger_Friend,20,21,Male,Yes,No,1,22,4.375
16620,6,0,Clown,yes,Blue,Friend,Won,32,21,6,Blue,Stranger_Friend,20,21,Male,Yes,No,1,22,4.375
24553,6,1,Calories,yes,Blue,Friend,Lost,33,21,6,Blue,Stranger_Friend,20,21,Male,Yes,No,1,22,4.375
2166,6,1,Busboy,yes,Blue,Friend,Lost,34,21,6,Blue,Stranger_Friend,20,21,Male,Yes,No,1,22,4.375
12914,6,0,Carpet,yes,Blue,Friend,Won,35,21,6,Blue,Stranger_Friend,20,21,Male,Yes,No,1,22,4.375
8624,6,1,Dip,yes,Blue,Friend,Lost,36,21,6,Blue,Stranger_Friend,20,21,Male,Yes,No,1,22,4.375
10962,6,1,Bald,yes,Blue,Friend,Lost,37,21,6,Blue,Stranger_Friend,20,21,Male,Yes,No,1,22,4.375
3242,6,1,Headline,yes,Blue,Friend,Lost,38,21,6,Blue,Stranger_Friend,20,21,Male,Yes,No,1,22,4.375
3412,6,1,Adhesive,yes,Blue,Friend,Lost,39,21,6,Blue,Stranger_Friend,20,21,Male,Yes,No,1,22,4.375
13615,6,0,Shadow,yes,Blue,Friend,Won,40,21,6,Blue,Stranger_Friend,20,21,Male,Yes,No,1,22,4.375
20816,6,1,Applause,yes,Blue,Friend,Lost,41,21,6,Blue,Stranger_Friend,20,21,Male,Yes,No,1,22,4.375
3909,6,1,Academy,yes,Blue,Friend,Lost,42,21,6,Blue,Stranger_Friend,20,21,Male,Yes,No,1,22,4.375
5111,6,1,Bloom,yes,Blue,Friend,Lost,43,21,6,Blue,Stranger_Friend,20,21,Male,Yes,No,1,22,4.375
,6,,Fudge,yes,Red,Stranger,Out of time,1,22,6,Red,Stranger_Friend,21,22,Female,Yes,No,2,24,0
13641,6,0,Sunflower,yes,Red,Stranger,Won,2,22,6,Red,Stranger_Friend,21,22,Female,Yes,No,2,24,0
9632,6,1,Surprise,yes,Red,Stranger,Lost,3,22,6,Red,Stranger_Friend,21,22,Female,Yes,No,2,24,0
,6,,Jockey,yes,Red,Stranger,Out of time,4,22,6,Red,Stranger_Friend,21,22,Female,Yes,No,2,24,0
29729,6,0,Sweet,yes,Red,Stranger,Won,5,22,6,Red,Stranger_Friend,21,22,Female,Yes,No,2,24,0
15027,6,1,Wallet,yes,Red,Stranger,Lost,6,22,6,Red,Stranger_Friend,21,22,Female,Yes,No,2,24,0
,6,,Tent,yes,Red,Stranger,Out of time,7,22,6,Red,Stranger_Friend,21,22,Female,Yes,No,2,24,0
17055,6,0,Spatula,yes,Red,Stranger,Won,8,22,6,Red,Stranger_Friend,21,22,Female,Yes,No,2,24,0
11437,6,0,Teacher,yes,Red,Stranger,Won,9,22,6,Red,Stranger_Friend,21,22,Female,Yes,No,2,24,0
14617,6,0,Mirror,yes,Red,Stranger,Won,10,22,6,Red,Stranger_Friend,21,22,Female,Yes,No,2,24,0
28951,6,1,Valet,yes,Red,Stranger,Lost,11,22,6,Red,Stranger_Friend,21,22,Female,Yes,No,2,24,0
23743,6,1,Hamster,yes,Red,Stranger,Lost,12,22,6,Red,Stranger_Friend,21,22,Female,Yes,No,2,24,0
13901,6,0,Volcano,yes,Red,Stranger,Won,13,22,6,Red,Stranger_Friend,21,22,Female,Yes,No,2,24,0
12047,6,0,Spy,yes,Red,Stranger,Won,14,22,6,Red,Stranger_Friend,21,22,Female,Yes,No,2,24,0
23335,6,0,Touch,yes,Red,Stranger,Won,15,22,6,Red,Stranger_Friend,21,22,Female,Yes,No,2,24,0
20567,6,0,Windmill,yes,Red,Stranger,Won,16,22,6,Red,Stranger_Friend,21,22,Female,Yes,No,2,24,0
8292,6,0,Tired,yes,Red,Stranger,Won,17,22,6,Red,Stranger_Friend,21,22,Female,Yes,No,2,24,0
10198,6,0,Wine,yes,Red,Stranger,Won,18,22,6,Red,Stranger_Friend,21,22,Female,Yes,No,2,24,0
,6,,Teapot,yes,Red,Stranger,Out of time,19,22,6,Red,Stranger_Friend,21,22,Female,Yes,No,2,24,0
7828,6,1,Tape,yes,Red,Stranger,Lost,20,22,6,Red,Stranger_Friend,21,22,Female,Yes,No,2,24,0
29845,6,1,Peak,yes,Red,Stranger,Lost,21,22,6,Red,Stranger_Friend,21,22,Female,Yes,No,2,24,0
21613,6,1,Tropical,yes,Red,Stranger,Lost,22,22,6,Red,Stranger_Friend,21,22,Female,Yes,No,2,24,0
14675,6,0,Poem,yes,Red,Stranger,Won,23,22,6,Red,Stranger_Friend,21,22,Female,Yes,No,2,24,0
12225,6,0,Static,yes,Red,Stranger,Won,24,22,6,Red,Stranger_Friend,21,22,Female,Yes,No,2,24,0
10436,6,1,Scoop,yes,Red,Stranger,Lost,25,22,6,Red,Stranger_Friend,21,22,Female,Yes,No,2,24,0
28213,6,0,Shrimp,yes,Red,Stranger,Won,26,22,6,Red,Stranger_Friend,21,22,Female,Yes,No,2,24,0
7005,6,1,Wishing Well,yes,Red,Stranger,Lost,27,22,6,Red,Stranger_Friend,21,22,Female,Yes,No,2,24,0
19868,6,1,Stunt,yes,Red,Friend,Lost,1,22,6,Red,Stranger_Friend,21,22,Female,Yes,No,2,21,4.375
16973,6,1,Yesterday,yes,Red,Friend,Lost,2,22,6,Red,Stranger_Friend,21,22,Female,Yes,No,2,21,4.375
14780,6,0,Theme Park,yes,Red,Friend,Won,3,22,6,Red,Stranger_Friend,21,22,Female,Yes,No,2,21,4.375
17712,6,0,Snack,yes,Red,Friend,Won,4,22,6,Red,Stranger_Friend,21,22,Female,Yes,No,2,21,4.375
20277,6,0,Snore,yes,Red,Friend,Won,5,22,6,Red,Stranger_Friend,21,22,Female,Yes,No,2,21,4.375
7904,6,0,Snowflake,yes,Red,Friend,Won,6,22,6,Red,Stranger_Friend,21,22,Female,Yes,No,2,21,4.375
6566,6,1,Marriage,yes,Red,Friend,Lost,7,22,6,Red,Stranger_Friend,21,22,Female,Yes,No,2,21,4.375
29370,6,1,Quintuplets,yes,Red,Friend,Lost,8,22,6,Red,Stranger_Friend,21,22,Female,Yes,No,2,21,4.375
16735,6,1,Strategy,yes,Red,Friend,Lost,9,22,6,Red,Stranger_Friend,21,22,Female,Yes,No,2,21,4.375
8506,6,0,Queen,yes,Red,Friend,Won,10,22,6,Red,Stranger_Friend,21,22,Female,Yes,No,2,21,4.375
17611,6,1,Smear,yes,Red,Friend,Lost,11,22,6,Red,Stranger_Friend,21,22,Female,Yes,No,2,21,4.375
11974,6,0,Skateboard,yes,Red,Friend,Won,12,22,6,Red,Stranger_Friend,21,22,Female,Yes,No,2,21,4.375
8237,6,0,Stomach,yes,Red,Friend,Won,13,22,6,Red,Stranger_Friend,21,22,Female,Yes,No,2,21,4.375
18194,6,1,Welcome,yes,Red,Friend,Lost,14,22,6,Red,Stranger_Friend,21,22,Female,Yes,No,2,21,4.375
12046,6,0,Stiff,yes,Red,Friend,Won,15,22,6,Red,Stranger_Friend,21,22,Female,Yes,No,2,21,4.375
3309,6,1,Plumber,yes,Red,Friend,Lost,16,22,6,Red,Stranger_Friend,21,22,Female,Yes,No,2,21,4.375
18501,6,0,Helmet,yes,Red,Friend,Won,17,22,6,Red,Stranger_Friend,21,22,Female,Yes,No,2,21,4.375
9303,6,1,Simple,yes,Red,Friend,Lost,18,22,6,Red,Stranger_Friend,21,22,Female,Yes,No,2,21,4.375
22000,6,1,Hiccup,yes,Red,Friend,Lost,19,22,6,Red,Stranger_Friend,21,22,Female,Yes,No,2,21,4.375
12105,6,1,Yo-Yo,yes,Red,Friend,Lost,20,22,6,Red,Stranger_Friend,21,22,Female,Yes,No,2,21,4.375
12165,6,0,Smoke,yes,Red,Friend,Won,21,22,6,Red,Stranger_Friend,21,22,Female,Yes,No,2,21,4.375
11934,6,0,Pool,yes,Red,Friend,Won,22,22,6,Red,Stranger_Friend,21,22,Female,Yes,No,2,21,4.375
4935,6,0,Waffle,yes,Red,Friend,Won,23,22,6,Red,Stranger_Friend,21,22,Female,Yes,No,2,21,4.375
5792,6,1,Sleepwalk,yes,Red,Friend,Lost,24,22,6,Red,Stranger_Friend,21,22,Female,Yes,No,2,21,4.375
15569,6,0,Tweet,yes,Red,Friend,Won,25,22,6,Red,Stranger_Friend,21,22,Female,Yes,No,2,21,4.375
8496,6,0,Tip,yes,Red,Friend,Won,26,22,6,Red,Stranger_Friend,21,22,Female,Yes,No,2,21,4.375
8083,6,1,Midnight,yes,Red,Friend,Lost,27,22,6,Red,Stranger_Friend,21,22,Female,Yes,No,2,21,4.375
22928,6,1,Stagger,yes,Red,Friend,Lost,28,22,6,Red,Stranger_Friend,21,22,Female,Yes,No,2,21,4.375
14744,6,1,Karaoke,yes,Red,Friend,Lost,29,22,6,Red,Stranger_Friend,21,22,Female,Yes,No,2,21,4.375
8326,6,0,Tag,yes,Red,Friend,Won,30,22,6,Red,Stranger_Friend,21,22,Female,Yes,No,2,21,4.375
11545,6,0,Stars,yes,Red,Friend,Won,31,22,6,Red,Stranger_Friend,21,22,Female,Yes,No,2,21,4.375
6752,6,1,Yellow,yes,Red,Friend,Lost,32,22,6,Red,Stranger_Friend,21,22,Female,Yes,No,2,21,4.375
17121,6,0,Snowman,yes,Red,Friend,Won,33,22,6,Red,Stranger_Friend,21,22,Female,Yes,No,2,21,4.375
2752,6,1,Tombstone,yes,Red,Friend,Lost,34,22,6,Red,Stranger_Friend,21,22,Female,Yes,No,2,21,4.375
3279,6,1,Trolley Car,yes,Red,Friend,Lost,35,22,6,Red,Stranger_Friend,21,22,Female,Yes,No,2,21,4.375
26724,6,0,Trunk,yes,Red,Friend,Won,36,22,6,Red,Stranger_Friend,21,22,Female,Yes,No,2,21,4.375
12988,6,1,Sweat,yes,Red,Friend,Lost,37,22,6,Red,Stranger_Friend,21,22,Female,Yes,No,2,21,4.375
10091,6,0,Twins,yes,Red,Friend,Won,38,22,6,Red,Stranger_Friend,21,22,Female,Yes,No,2,21,4.375
10679,6,1,Street,yes,Red,Friend,Lost,39,22,6,Red,Stranger_Friend,21,22,Female,Yes,No,2,21,4.375
29825,6,0,Path,yes,Purple,Stranger,Won,1,23,6,Purple,Stranger_Friend,19.5,23,Female,Yes,Yes,3,21,0
18435,6,1,Fly,yes,Purple,Stranger,Lost,2,23,6,Purple,Stranger_Friend,19.5,23,Female,Yes,Yes,3,21,0
3546,6,1,Tart,yes,Purple,Stranger,Lost,3,23,6,Purple,Stranger_Friend,19.5,23,Female,Yes,Yes,3,21,0
14951,6,0,Mouse,yes,Purple,Stranger,Won,4,23,6,Purple,Stranger_Friend,19.5,23,Female,Yes,Yes,3,21,0
14245,6,1,Mistletoe,yes,Purple,Stranger,Lost,5,23,6,Purple,Stranger_Friend,19.5,23,Female,Yes,Yes,3,21,0
